Timestamp,Accel X,Accel Y,Accel Z,Gyro X,Gyro Y,Gyro Z
8:04:10 PM,1.28,9.62,0.67,-0.01,-0.05,0.01
8:04:10 PM,0.73,9.78,0.85,-0.03,0.06,0.01
8:04:10 PM,0.82,9.84,1.26,0.10,0.04,0.01
8:04:10 PM,0.27,9.90,1.46,0.10,0.08,0.01
8:04:10 PM,0.97,9.65,1.33,0.04,-0.07,0.01
8:04:11 PM,0.54,9.90,1.05,-0.00,0.02,0.01
8:04:11 PM,1.04,9.62,0.95,0.00,-0.05,0.01
8:04:11 PM,0.79,9.73,0.95,-0.04,0.04,0.01
8:04:11 PM,0.94,9.78,0.71,-0.12,-0.06,0.01
8:04:11 PM,0.78,9.81,0.85,-0.01,-0.04,0.01
8:04:11 PM,0.57,9.69,1.22,-0.02,0.03,0.01
8:04:11 PM,0.71,9.77,1.18,0.00,-0.01,0.01
8:04:11 PM,0.91,9.68,1.02,0.03,0.01,0.01
8:04:11 PM,0.80,9.68,1.12,-0.04,0.07,0.01
8:04:11 PM,0.93,9.74,1.17,-0.03,-0.02,0.01
8:04:12 PM,0.79,9.67,1.38,0.08,-0.11,0.01
8:04:12 PM,0.69,9.76,0.90,0.05,-0.02,0.01
8:04:12 PM,1.09,9.73,0.40,-0.00,0.07,0.01
8:04:12 PM,0.85,9.75,0.94,-0.03,0.04,0.01
8:04:12 PM,0.56,9.83,0.89,0.02,0.04,0.01
8:04:12 PM,0.72,9.84,0.96,0.01,0.01,0.01
8:04:12 PM,0.96,9.75,0.93,-0.06,-0.07,0.01
8:04:12 PM,0.73,9.71,0.80,-0.04,0.01,0.01
8:04:12 PM,1.24,9.67,0.98,-0.03,-0.04,0.01
8:04:13 PM,0.65,9.74,0.97,-0.04,-0.03,0.01
8:04:13 PM,0.80,9.81,1.07,0.01,-0.04,0.01
8:04:13 PM,0.89,9.66,0.93,-0.01,-0.06,0.01
8:04:13 PM,0.35,9.70,1.41,-0.04,-0.00,0.01
8:04:13 PM,0.57,9.65,1.26,-0.03,-0.02,0.01
8:04:13 PM,0.51,9.78,1.21,-0.00,-0.00,0.01
8:04:13 PM,0.70,9.79,0.95,-0.02,-0.05,0.01
8:04:13 PM,0.75,9.75,0.96,-0.02,-0.03,0.01
8:04:13 PM,0.79,9.73,0.95,0.02,-0.04,0.01
8:04:13 PM,0.73,9.65,0.98,0.00,0.01,0.01
8:04:14 PM,0.92,9.67,1.07,0.00,-0.01,0.01
8:04:14 PM,0.90,9.64,1.02,-0.07,-0.01,0.01
8:04:14 PM,0.73,9.75,1.26,0.01,-0.00,0.01
8:04:14 PM,0.84,9.69,1.06,-0.00,-0.02,0.01
8:04:14 PM,0.90,9.68,1.04,0.03,-0.02,0.01
8:04:14 PM,0.88,9.62,1.10,-0.01,-0.02,0.01
8:04:14 PM,0.98,9.73,0.91,0.08,-0.01,0.01
8:04:14 PM,0.60,9.80,1.11,0.02,-0.06,0.01
8:04:14 PM,0.60,9.79,1.01,0.04,-0.02,0.01
8:04:15 PM,0.82,9.67,0.92,-0.02,0.02,0.01
8:04:15 PM,0.88,9.72,1.24,0.01,0.01,0.01
8:04:15 PM,0.73,9.74,1.27,-0.01,-0.03,0.01
8:04:15 PM,0.58,9.67,0.98,0.02,0.00,0.01
8:04:15 PM,0.62,9.79,1.08,0.06,0.03,0.01
8:04:15 PM,0.65,9.80,1.29,0.05,0.04,0.01
8:04:15 PM,0.93,9.60,1.16,0.00,-0.06,0.01
8:04:15 PM,0.87,9.58,0.99,-0.00,-0.03,0.01
8:04:15 PM,0.85,9.64,0.88,-0.00,-0.03,0.01
8:04:16 PM,0.69,9.76,0.96,0.01,-0.01,0.01
8:04:16 PM,0.73,9.70,0.99,0.01,0.03,0.01
8:04:16 PM,0.64,9.77,1.02,0.03,0.03,0.01
8:04:16 PM,0.85,9.68,1.14,0.03,0.01,0.01
8:04:16 PM,0.84,9.66,1.18,0.01,-0.08,0.01
8:04:16 PM,0.77,9.71,1.07,0.03,-0.08,0.01
8:04:16 PM,0.63,9.75,1.13,-0.01,-0.04,0.01
8:04:16 PM,0.59,9.69,0.94,0.00,-0.03,0.01
8:04:16 PM,0.68,9.74,1.21,0.06,0.01,0.01
8:04:16 PM,1.03,9.69,1.23,0.03,-0.01,0.01
8:04:17 PM,0.98,9.67,1.03,0.01,-0.08,0.01
8:04:17 PM,0.28,9.92,1.06,0.01,-0.08,0.01
8:04:17 PM,0.68,9.67,1.14,0.02,-0.01,0.01
8:04:17 PM,0.63,9.70,0.96,-0.02,-0.08,0.01
8:04:17 PM,0.45,9.84,0.97,-0.01,-0.04,0.01
8:04:17 PM,0.46,9.84,0.99,-0.01,-0.00,0.01
8:04:17 PM,0.57,9.77,1.27,0.02,0.00,0.01
8:04:17 PM,0.55,9.75,1.10,0.02,0.01,0.01
8:04:17 PM,0.71,9.67,1.01,-0.02,-0.06,0.01
8:04:18 PM,0.91,9.66,1.09,-0.02,-0.05,0.01
8:04:18 PM,0.60,9.73,1.09,0.00,-0.03,0.01
8:04:18 PM,0.58,9.79,0.96,-0.01,-0.08,0.01
8:04:18 PM,0.62,9.71,0.81,-0.04,-0.08,0.01
8:04:18 PM,0.06,9.86,0.72,-0.04,-0.11,0.01
8:04:18 PM,0.10,9.90,0.77,-0.03,-0.07,0.01
8:04:18 PM,0.04,9.88,0.67,0.03,0.06,0.01
8:04:18 PM,0.37,9.76,0.81,0.01,0.02,0.01
8:04:18 PM,0.25,9.84,1.03,0.06,0.03,0.01
8:04:18 PM,0.73,9.77,1.04,0.05,0.03,0.01
8:04:19 PM,0.56,9.84,0.91,-0.00,0.01,0.01
8:04:19 PM,0.77,9.71,0.74,-0.01,-0.03,0.01
8:04:19 PM,0.81,9.69,0.93,0.04,0.03,0.01
8:04:19 PM,0.84,9.65,0.86,0.06,-0.02,0.01
8:04:19 PM,1.05,9.73,0.96,0.02,-0.02,0.01
8:04:19 PM,0.90,9.68,1.22,0.01,-0.09,0.01
8:04:19 PM,1.10,9.63,1.16,-0.00,-0.05,0.01
8:04:19 PM,0.86,9.75,1.12,-0.02,-0.05,0.01
8:04:19 PM,0.95,9.70,1.02,-0.05,-0.11,0.01
8:04:20 PM,0.75,9.77,1.06,-0.02,-0.05,0.01
8:04:20 PM,0.85,9.67,0.80,-0.02,-0.06,0.01
8:04:20 PM,0.68,9.73,0.98,-0.01,-0.06,0.01
8:04:20 PM,0.59,9.83,1.02,0.04,-0.01,0.01
8:04:20 PM,0.74,9.65,0.75,0.04,0.02,0.01
8:04:20 PM,0.50,9.81,0.92,0.00,-0.04,0.01
8:04:20 PM,0.52,9.76,0.94,0.02,-0.03,0.01
8:04:20 PM,0.60,9.78,0.91,0.04,-0.04,0.01
8:04:20 PM,0.76,9.67,1.00,0.02,0.01,0.01
8:04:20 PM,0.64,9.81,0.98,0.04,-0.04,0.01
8:04:21 PM,0.73,9.78,1.02,0.05,0.02,0.01
8:04:21 PM,0.76,9.78,1.09,0.02,-0.06,0.01
8:04:21 PM,1.00,9.70,1.12,0.00,-0.04,0.01
8:04:21 PM,0.81,9.74,0.93,-0.02,-0.03,0.01
8:04:21 PM,0.60,9.76,1.04,-0.01,-0.04,0.01
8:04:21 PM,0.76,9.77,0.97,0.01,-0.01,0.01
8:04:21 PM,0.53,9.75,0.99,0.02,0.01,0.01
8:04:21 PM,0.40,9.91,0.81,-0.01,-0.08,0.01
8:04:21 PM,0.45,9.77,0.91,-0.00,-0.02,0.01
8:04:22 PM,0.72,9.73,0.86,0.01,-0.01,0.01
8:04:22 PM,0.51,9.84,1.22,0.03,-0.02,0.01
8:04:22 PM,0.67,9.73,1.05,0.04,0.02,0.01
8:04:22 PM,0.68,9.72,0.84,0.02,-0.05,0.01
8:04:22 PM,0.76,9.71,1.08,-0.01,-0.04,0.01
8:04:22 PM,0.76,9.68,1.12,-0.02,-0.04,0.01
8:04:22 PM,0.62,9.79,1.03,-0.03,-0.03,0.01
8:04:22 PM,0.58,9.78,1.06,-0.01,-0.02,0.01
8:04:22 PM,0.68,9.79,1.02,-0.00,0.01,0.01
8:04:22 PM,0.67,9.78,1.01,0.00,0.03,0.01
8:04:23 PM,0.72,9.79,0.89,0.00,-0.02,0.01
8:04:23 PM,0.90,9.66,0.77,-0.01,-0.01,0.01
8:04:23 PM,0.68,9.78,1.07,-0.04,-0.03,0.01
8:04:23 PM,0.57,9.78,1.15,-0.02,0.03,0.01
8:04:23 PM,0.49,9.72,1.34,0.00,-0.01,0.01
8:04:23 PM,0.70,9.71,1.04,-0.04,0.05,0.01
8:04:23 PM,0.67,9.80,1.08,0.00,-0.02,0.01
8:04:23 PM,1.00,9.60,0.86,-0.02,-0.03,0.01
8:04:23 PM,0.61,9.80,1.00,0.01,-0.03,0.01
8:04:24 PM,0.80,9.68,1.14,0.00,0.02,0.01
8:04:24 PM,0.77,9.69,1.44,0.02,-0.02,0.01
8:04:24 PM,0.73,9.78,1.18,-0.02,-0.00,0.01
8:04:24 PM,0.65,9.75,1.29,-0.07,0.01,0.01
8:04:24 PM,0.51,9.61,1.47,0.01,-0.02,0.01
8:04:24 PM,0.59,9.70,1.32,-0.01,-0.01,0.01
8:04:24 PM,0.63,9.72,1.28,-0.04,-0.01,0.01
8:04:24 PM,0.68,9.66,1.39,-0.03,-0.03,0.01
8:04:24 PM,0.66,9.75,1.47,-0.02,-0.05,0.01
8:04:24 PM,0.35,9.76,1.48,0.02,-0.01,0.01
8:04:25 PM,0.60,9.63,1.28,0.01,-0.02,0.01
8:04:25 PM,0.58,9.78,1.20,0.05,-0.01,0.01
8:04:25 PM,0.52,9.70,1.27,0.04,-0.01,0.01
8:04:25 PM,0.76,9.69,1.08,0.01,0.00,0.01
8:04:25 PM,0.68,9.69,1.21,0.12,-0.07,0.01
8:04:25 PM,0.67,9.70,1.24,0.05,-0.02,0.01
8:04:25 PM,0.47,9.75,1.04,0.06,0.00,0.01
8:04:25 PM,0.54,9.73,1.06,0.04,-0.05,0.01
8:04:25 PM,0.76,9.72,1.03,0.01,0.01,0.01
8:04:26 PM,0.58,9.81,1.12,0.02,-0.02,0.01
8:04:26 PM,0.86,9.67,0.89,0.02,-0.07,0.01
8:04:26 PM,0.57,9.83,1.19,0.04,-0.00,0.01
8:04:26 PM,0.72,9.73,1.11,0.04,0.02,0.01
8:04:26 PM,0.88,9.66,1.11,0.01,0.00,0.01
8:04:26 PM,0.95,9.83,0.98,0.02,-0.06,0.01
8:04:26 PM,0.74,9.72,1.00,-0.01,-0.03,0.01
8:04:26 PM,0.59,9.80,1.11,0.01,-0.04,0.01
8:04:26 PM,0.65,9.68,1.11,0.00,0.04,0.01
8:04:26 PM,0.81,9.63,1.07,-0.03,-0.00,0.01
8:04:27 PM,0.85,9.76,0.92,-0.02,-0.03,0.01
8:04:27 PM,0.54,9.71,1.19,-0.01,-0.02,0.01
8:04:27 PM,0.59,9.70,1.21,-0.02,0.02,0.01
8:04:27 PM,0.54,9.73,1.02,0.01,-0.05,0.01
8:04:27 PM,0.60,9.70,1.13,0.01,-0.01,0.01
8:04:27 PM,0.63,9.72,1.22,0.04,-0.01,0.01
8:04:27 PM,0.67,9.72,1.13,-0.02,-0.03,0.01
8:04:27 PM,0.48,9.82,1.31,0.01,-0.02,0.01
8:04:27 PM,0.62,9.74,1.08,-0.02,-0.02,0.01
8:04:28 PM,0.92,9.59,1.14,-0.01,-0.05,0.01
8:04:28 PM,0.43,9.78,1.02,0.02,-0.06,0.01
8:04:28 PM,0.54,9.83,1.30,0.05,-0.02,0.01
8:04:28 PM,0.59,9.77,1.21,0.00,0.00,0.01
8:04:28 PM,0.70,9.72,1.07,0.02,-0.01,0.01
8:04:28 PM,0.61,9.81,1.16,0.03,0.00,0.01
8:04:28 PM,0.77,9.65,1.02,0.02,0.00,0.01
8:04:28 PM,0.57,9.86,1.26,0.02,-0.01,0.01
8:04:28 PM,0.61,9.74,1.12,0.02,-0.02,0.01
8:04:28 PM,0.55,9.86,1.10,0.01,-0.06,0.01
8:04:29 PM,0.23,9.64,1.36,0.05,0.17,0.01
8:04:29 PM,0.69,9.71,0.94,-0.01,-0.01,0.01
8:04:29 PM,0.88,9.63,0.86,-0.02,-0.12,0.01
8:04:29 PM,0.56,9.64,1.03,-0.01,-0.07,0.01
8:04:29 PM,0.41,9.85,1.06,0.02,-0.01,0.01
8:04:29 PM,0.53,9.74,1.10,-0.01,-0.02,0.01
8:04:29 PM,0.79,9.67,1.35,0.02,0.00,0.01
8:04:29 PM,0.53,9.86,1.14,0.04,-0.03,0.01
8:04:29 PM,0.56,9.76,1.22,-0.01,-0.03,0.01
8:04:30 PM,0.84,9.65,1.05,-0.01,-0.04,0.01
8:04:30 PM,0.89,9.63,1.26,-0.00,-0.03,0.01
8:04:30 PM,0.75,9.70,1.06,-0.01,0.00,0.01
8:04:30 PM,0.87,9.70,1.16,-0.03,-0.02,0.01
8:04:30 PM,0.83,9.68,1.10,0.02,0.07,0.01
8:04:30 PM,0.73,9.65,0.87,0.00,-0.03,0.01
8:04:30 PM,0.78,9.69,1.11,-0.01,-0.05,0.01
8:04:30 PM,0.83,9.65,0.91,0.01,-0.03,0.01
8:04:30 PM,0.40,9.73,1.27,0.02,-0.00,0.01
8:04:31 PM,0.69,9.71,1.13,-0.00,-0.01,0.01
8:04:31 PM,0.79,9.75,1.13,0.01,-0.03,0.01
8:04:31 PM,0.90,9.73,1.04,-0.01,-0.01,0.01
8:04:31 PM,0.71,9.69,0.94,-0.01,-0.03,0.01
8:04:31 PM,0.58,9.78,1.02,0.04,0.01,0.01
8:04:31 PM,0.66,9.73,1.12,0.04,-0.05,0.01
8:04:31 PM,0.68,9.76,1.10,0.06,-0.03,0.01
8:04:31 PM,0.68,9.75,1.05,0.00,-0.02,0.01
8:04:31 PM,0.85,9.60,1.25,0.05,0.01,0.01
8:04:31 PM,0.78,9.73,1.05,-0.01,0.00,0.01
8:04:32 PM,0.80,9.73,1.15,-0.01,-0.00,0.01
8:04:32 PM,0.80,9.76,1.11,0.03,-0.05,0.01
8:04:32 PM,0.62,9.72,1.07,0.04,-0.04,0.01
8:04:32 PM,0.82,9.79,1.07,0.04,-0.03,0.01
8:04:32 PM,0.74,9.71,1.05,0.02,-0.07,0.01
8:04:32 PM,0.62,9.75,1.15,0.00,0.02,0.01
8:04:32 PM,0.77,9.71,1.06,-0.01,-0.03,0.01
8:04:32 PM,0.76,9.49,1.14,0.02,0.03,0.01
8:04:32 PM,0.75,9.73,1.30,0.02,-0.05,0.01
8:04:33 PM,0.87,9.61,1.15,-0.01,-0.01,0.01
8:04:33 PM,0.71,9.68,1.20,0.01,0.01,0.01
8:04:33 PM,0.69,9.71,1.18,0.00,-0.03,0.01
8:04:33 PM,0.78,9.65,1.32,0.01,-0.03,0.01
8:04:33 PM,0.56,9.74,1.26,0.01,-0.04,0.01
8:04:33 PM,0.88,9.62,1.18,0.02,0.04,0.01
8:04:33 PM,0.69,9.80,1.03,0.00,-0.07,0.01
8:04:33 PM,0.66,9.69,1.21,0.00,-0.05,0.01
8:04:33 PM,0.61,9.82,1.24,0.07,-0.03,0.01
8:04:33 PM,0.86,9.70,1.19,0.00,-0.02,0.01
8:04:34 PM,0.91,9.60,1.08,0.02,0.02,0.01
8:04:34 PM,0.59,9.73,1.32,0.01,-0.02,0.01
8:04:34 PM,0.86,9.67,1.21,-0.00,-0.01,0.01
8:04:34 PM,0.85,9.66,1.42,-0.00,-0.04,0.01
8:04:34 PM,0.81,9.68,1.18,-0.02,0.00,0.01
8:04:34 PM,0.75,9.67,1.20,-0.00,-0.01,0.01
8:04:34 PM,0.74,9.72,1.20,-0.02,-0.04,0.01
8:04:34 PM,0.83,9.65,1.03,-0.00,-0.04,0.01
8:04:34 PM,1.06,9.45,1.23,0.02,-0.15,0.01
8:04:35 PM,0.53,9.73,1.32,-0.02,0.02,0.01
8:04:35 PM,0.67,9.69,1.19,-0.00,0.01,0.01
8:04:35 PM,0.72,9.59,1.06,-0.02,0.03,0.01
8:04:35 PM,1.19,9.57,0.55,-0.00,-0.06,0.01
8:04:35 PM,0.82,9.74,1.32,0.13,-0.04,0.01
8:04:35 PM,1.13,9.72,0.51,0.02,-0.03,0.01
8:04:35 PM,0.85,9.68,0.87,0.04,0.01,0.01
8:04:35 PM,0.65,9.77,0.96,0.01,-0.03,0.01
8:04:35 PM,0.57,9.80,0.91,0.02,0.00,0.01
8:04:35 PM,1.06,9.61,0.72,-0.01,-0.08,0.01
8:04:36 PM,0.77,9.75,0.90,-0.02,-0.03,0.01
8:04:36 PM,0.89,9.62,1.03,0.01,0.01,0.01
8:04:36 PM,0.65,9.81,1.14,-0.01,-0.02,0.01
8:04:36 PM,0.50,9.82,1.18,0.03,0.02,0.01
8:04:36 PM,0.78,9.71,1.06,0.01,-0.02,0.01
8:04:36 PM,0.63,9.77,1.07,0.02,-0.01,0.01
8:04:36 PM,0.78,9.77,1.09,0.02,-0.04,0.01
8:04:36 PM,0.99,9.62,0.99,-0.01,-0.08,0.01
8:04:36 PM,0.63,9.78,0.99,0.02,-0.03,0.01
8:04:37 PM,0.78,9.72,1.13,0.06,-0.02,0.01
8:04:37 PM,0.71,9.75,1.00,0.04,0.03,0.01
8:04:37 PM,1.07,9.67,1.05,-0.03,-0.03,0.01
8:04:37 PM,1.14,9.62,1.20,-0.12,-0.13,0.01
8:04:37 PM,0.45,9.74,1.35,0.01,0.04,0.01
8:04:37 PM,0.66,9.63,1.34,0.05,0.06,0.01
8:04:37 PM,0.85,9.72,1.19,0.01,0.05,0.01
8:04:37 PM,0.95,9.67,1.27,-0.01,-0.05,0.01
8:04:37 PM,0.92,9.64,1.13,0.02,-0.02,0.01
8:04:37 PM,0.84,9.64,1.24,-0.01,-0.01,0.01
8:04:38 PM,0.78,9.70,1.19,0.01,-0.05,0.01
8:04:38 PM,0.62,9.69,1.02,0.03,0.04,0.01
8:04:38 PM,0.74,9.56,1.26,0.04,0.04,0.01
8:04:38 PM,0.74,9.69,1.38,0.02,0.01,0.01
8:04:38 PM,0.83,9.61,1.15,0.01,-0.04,0.01
8:04:38 PM,0.59,9.77,1.24,0.05,-0.04,0.01
8:04:38 PM,0.57,9.80,1.19,0.06,-0.01,0.01
8:04:38 PM,0.79,9.76,1.11,0.05,-0.03,0.01
8:04:38 PM,0.93,9.70,1.12,0.06,-0.06,0.01
8:04:39 PM,0.74,9.67,1.02,0.04,-0.05,0.01
8:04:39 PM,0.76,9.66,1.23,0.04,-0.02,0.01
8:04:39 PM,0.74,9.67,1.15,0.04,-0.05,0.01
8:04:39 PM,0.64,9.86,1.11,0.04,-0.06,0.01
8:04:39 PM,0.92,9.69,1.06,0.03,-0.07,0.01
8:04:39 PM,0.72,9.68,1.15,-0.00,0.04,0.01
8:04:39 PM,1.02,9.57,1.07,-0.00,-0.05,0.01
8:04:39 PM,0.66,9.80,1.26,0.03,-0.02,0.01
8:04:39 PM,0.73,9.60,1.11,0.04,-0.06,0.01
8:04:39 PM,0.96,9.64,1.18,0.01,-0.03,0.01
8:04:40 PM,0.73,9.67,1.06,0.02,-0.04,0.01
8:04:40 PM,0.94,9.59,0.95,-0.01,-0.01,0.01
8:04:40 PM,0.83,9.66,1.07,-0.01,-0.07,0.01
8:04:40 PM,0.70,9.71,1.16,0.02,-0.01,0.01
8:04:40 PM,1.00,9.63,0.95,-0.03,-0.02,0.01
8:04:40 PM,0.78,9.71,1.18,0.01,-0.00,0.01
8:04:40 PM,0.81,9.78,1.24,0.04,-0.03,0.01
8:04:40 PM,0.90,9.61,1.11,-0.02,-0.06,0.01
8:04:40 PM,0.66,9.68,1.11,-0.00,-0.03,0.01
8:04:41 PM,0.77,9.68,1.18,0.02,-0.03,0.01
8:04:41 PM,0.75,9.68,1.13,-0.01,-0.00,0.01
8:04:41 PM,0.69,9.72,1.12,-0.02,-0.03,0.01
8:04:41 PM,0.76,9.64,1.29,-0.05,-0.01,0.01
8:04:41 PM,0.61,9.65,1.34,-0.02,-0.03,0.01
8:04:41 PM,1.01,9.62,1.19,-0.01,-0.03,0.01
8:04:41 PM,0.86,9.60,1.18,-0.03,-0.03,0.01
8:04:41 PM,0.82,9.70,1.08,-0.00,0.02,0.01
8:04:41 PM,0.76,9.72,1.14,-0.03,0.02,0.01
8:04:42 PM,0.92,9.68,1.06,-0.00,-0.02,0.01
8:04:42 PM,0.77,9.63,1.26,-0.01,-0.04,0.01
8:04:42 PM,0.52,9.77,1.20,0.02,-0.02,0.01
8:04:42 PM,0.79,9.78,1.20,0.04,-0.00,0.01
8:04:42 PM,0.94,9.58,1.30,-0.04,-0.06,0.01
8:04:42 PM,1.05,9.65,1.24,0.01,-0.05,0.01
8:04:42 PM,0.84,9.77,1.25,0.02,-0.04,0.01
8:04:42 PM,0.89,9.64,1.19,0.03,-0.01,0.01
8:04:42 PM,0.76,9.57,1.41,0.02,0.02,0.01
8:04:42 PM,0.78,9.75,1.30,0.04,-0.03,0.01
8:04:43 PM,0.74,9.65,1.30,0.06,0.01,0.01
8:04:43 PM,0.74,9.73,1.11,0.05,-0.06,0.01
8:04:43 PM,0.58,9.68,1.45,0.04,-0.00,0.01
8:04:43 PM,0.62,9.86,1.22,0.07,0.01,0.01
8:04:43 PM,0.69,9.71,1.24,0.03,0.02,0.01
8:04:43 PM,0.75,9.79,1.47,0.07,-0.00,0.01
8:04:43 PM,0.70,9.76,1.26,0.03,-0.03,0.01
8:04:43 PM,1.02,9.69,1.07,0.06,-0.00,0.01
8:04:43 PM,0.91,9.53,1.38,-0.00,0.00,0.01
8:04:44 PM,0.73,9.73,1.34,0.02,0.02,0.01
8:04:44 PM,0.67,9.72,1.25,-0.04,0.05,0.01
8:04:44 PM,0.70,9.70,1.39,0.01,-0.06,0.01
8:04:44 PM,1.18,9.60,1.16,-0.02,-0.07,0.01
8:04:44 PM,0.77,9.77,1.31,0.09,-0.05,0.01
8:04:44 PM,0.74,9.67,1.42,0.06,0.04,0.01
8:04:44 PM,0.94,9.60,1.21,0.01,0.03,0.01
8:04:44 PM,1.07,9.59,1.22,0.01,-0.01,0.01
8:04:44 PM,0.84,9.62,1.45,0.02,-0.02,0.01
8:04:44 PM,1.18,9.47,1.20,-0.00,-0.10,0.01
8:04:45 PM,0.95,9.65,1.06,-0.02,-0.05,0.01
8:04:45 PM,0.86,9.65,1.23,-0.01,-0.01,0.01
8:04:45 PM,1.00,9.62,1.31,-0.02,-0.03,0.01
8:04:45 PM,0.70,9.63,1.29,-0.00,-0.01,0.01
8:04:45 PM,0.74,9.60,1.22,-0.01,-0.05,0.01
8:04:45 PM,0.85,9.60,1.27,-0.03,-0.01,0.01
8:04:45 PM,0.85,9.65,1.24,-0.01,-0.04,0.01
8:04:45 PM,0.77,9.67,1.21,0.02,-0.03,0.01
8:04:45 PM,0.66,9.62,1.35,0.03,0.04,0.01
8:04:46 PM,0.58,9.72,1.55,0.00,-0.04,0.01
8:04:46 PM,0.76,9.78,1.23,0.02,-0.02,0.01
8:04:46 PM,0.67,9.72,1.34,0.05,0.00,0.01
8:04:46 PM,0.92,9.61,1.12,0.03,-0.01,0.01
8:04:46 PM,0.73,9.68,1.29,0.07,-0.00,0.01
8:04:46 PM,0.95,9.58,1.15,-0.00,0.04,0.01
8:04:46 PM,0.87,9.68,1.18,-0.03,-0.03,0.01
8:04:46 PM,0.70,9.71,1.15,-0.01,0.01,0.01
8:04:46 PM,0.57,9.75,1.40,0.00,0.03,0.01
8:04:46 PM,0.74,9.70,1.30,0.01,-0.02,0.01
8:04:47 PM,0.97,9.63,1.02,0.01,-0.01,0.01
8:04:47 PM,0.76,9.68,1.38,0.02,0.05,0.01
8:04:47 PM,1.18,9.55,1.42,0.00,-0.00,0.01
8:04:47 PM,0.77,9.84,1.50,-0.06,-0.16,0.01
8:04:47 PM,2.12,9.29,1.93,-0.10,-0.20,0.01
8:04:47 PM,1.00,9.61,1.50,-0.13,-0.30,0.01
8:04:47 PM,-0.00,9.95,0.97,-0.03,-0.09,0.01
8:04:47 PM,0.78,9.66,1.16,-0.01,0.02,0.01
8:04:47 PM,1.07,9.61,1.15,-0.01,-0.02,0.01
8:04:48 PM,1.04,9.62,1.26,-0.06,-0.05,0.01
8:04:48 PM,0.67,9.76,1.36,-0.01,-0.06,0.01
8:04:48 PM,0.52,9.72,1.35,0.02,-0.06,0.01
8:04:48 PM,0.33,9.76,1.22,-0.03,0.01,0.01
8:04:48 PM,0.43,9.67,1.25,0.03,0.02,0.01
8:04:48 PM,0.65,9.68,1.43,0.02,0.05,0.01
8:04:48 PM,0.88,9.67,1.51,0.02,0.02,0.01
8:04:48 PM,0.98,9.64,1.24,-0.01,0.02,0.01
8:04:48 PM,0.73,9.68,1.24,0.00,-0.03,0.01
8:04:48 PM,0.37,9.73,1.83,0.05,0.01,0.01
8:04:49 PM,0.58,9.89,1.22,0.05,-0.02,0.01
8:04:49 PM,0.82,9.62,1.23,0.09,-0.00,0.01
8:04:49 PM,0.75,9.72,1.36,-0.02,-0.01,0.01
8:04:49 PM,0.50,9.63,1.58,0.10,0.02,0.01
8:04:49 PM,1.30,9.75,1.11,-0.04,0.01,0.01
8:04:49 PM,1.14,9.52,1.18,-0.01,-0.03,0.01
8:04:49 PM,1.08,9.75,0.93,0.02,-0.02,0.01
8:04:49 PM,1.05,9.64,1.02,-0.02,-0.01,0.01
8:04:49 PM,1.10,9.62,1.04,-0.03,-0.01,0.01
8:04:50 PM,0.85,9.68,1.12,-0.05,-0.00,0.01
8:04:50 PM,0.85,9.71,1.04,-0.03,-0.01,0.01
8:04:50 PM,0.62,9.82,1.29,-0.01,-0.03,0.01
8:04:50 PM,0.76,9.65,1.06,-0.02,0.02,0.01
8:04:50 PM,0.75,9.76,1.18,0.01,-0.00,0.01
8:04:50 PM,0.83,9.73,1.06,0.03,-0.09,0.01
8:04:50 PM,0.99,9.62,1.10,0.02,-0.08,0.01
8:04:50 PM,0.79,9.62,1.18,0.01,0.04,0.01
8:04:50 PM,0.55,9.85,1.09,0.05,-0.07,0.01
8:04:50 PM,0.73,9.65,1.08,0.04,-0.03,0.01
8:04:51 PM,0.62,9.82,1.15,0.04,0.03,0.01
8:04:51 PM,0.98,9.59,1.08,0.02,-0.02,0.01
8:04:51 PM,0.42,9.68,1.33,0.05,0.01,0.01
8:04:51 PM,0.91,9.69,0.95,0.00,-0.02,0.01
8:04:51 PM,0.83,9.54,1.35,0.02,-0.03,0.01
8:04:51 PM,-0.05,9.64,1.60,-0.03,0.14,0.01
8:04:51 PM,0.66,9.61,2.00,-0.09,-0.22,0.01
8:04:51 PM,0.46,9.67,1.38,0.01,-0.01,0.01
8:04:51 PM,0.46,9.82,1.64,0.04,0.01,0.01
8:04:52 PM,1.14,9.58,1.24,0.03,-0.12,0.01
8:04:52 PM,0.37,9.73,1.43,0.07,0.02,0.01
8:04:52 PM,0.72,9.65,1.38,0.01,-0.05,0.01
8:04:52 PM,0.54,9.73,1.42,0.03,0.02,0.01
8:04:52 PM,0.80,9.60,1.39,0.01,-0.05,0.01
8:04:52 PM,0.87,9.58,1.21,-0.01,-0.01,0.01
8:04:52 PM,0.56,9.76,1.39,0.03,-0.02,0.01
8:04:52 PM,0.72,9.70,1.32,0.03,-0.05,0.01
8:04:52 PM,1.00,9.56,1.27,0.01,-0.06,0.01
8:04:52 PM,0.54,9.77,1.33,0.01,-0.07,0.01
8:04:53 PM,0.59,9.74,1.17,0.01,-0.03,0.01
8:04:53 PM,0.56,9.63,1.33,-0.00,-0.02,0.01
8:04:53 PM,0.56,9.69,1.40,0.00,-0.00,0.01
8:04:53 PM,0.74,9.67,1.27,0.03,0.01,0.01
8:04:53 PM,0.40,9.87,1.46,0.08,0.03,0.01
8:04:53 PM,0.67,9.82,1.42,0.05,-0.04,0.01
8:04:53 PM,0.89,9.61,1.20,-0.01,0.00,0.01
8:04:53 PM,0.69,9.69,1.29,0.03,0.01,0.01
8:04:53 PM,0.88,9.60,1.15,-0.01,-0.02,0.01
8:04:54 PM,0.55,9.67,1.27,-0.00,0.02,0.01
8:04:54 PM,0.63,9.73,1.26,0.01,-0.01,0.01
8:04:54 PM,0.51,9.68,1.54,0.02,0.01,0.01
8:04:54 PM,0.83,9.67,1.24,0.04,-0.04,0.01
8:04:54 PM,0.55,9.82,1.42,0.04,-0.02,0.01
8:04:54 PM,0.78,9.69,1.57,0.00,-0.00,0.01
8:04:54 PM,0.52,9.66,1.53,0.06,0.03,0.01
8:04:55 PM,0.81,9.61,1.21,0.01,0.01,0.01
8:04:55 PM,0.98,9.67,1.39,0.03,-0.03,0.01
8:04:55 PM,0.67,9.65,1.51,0.04,-0.02,0.01
8:04:55 PM,0.74,9.67,1.36,0.01,0.03,0.01
8:04:55 PM,0.91,9.54,1.26,0.01,-0.02,0.01
8:04:55 PM,0.63,9.66,1.30,-0.02,-0.02,0.01
8:04:55 PM,0.88,9.64,1.17,0.01,-0.02,0.01
8:04:55 PM,0.76,9.66,1.30,0.00,-0.05,0.01
8:05:03 PM,0.90,9.61,1.22,0.00,-0.05,0.01
8:05:03 PM,0.77,9.56,1.33,0.02,-0.01,0.01
8:05:03 PM,0.89,9.61,1.33,0.01,-0.06,0.01
8:05:03 PM,0.61,9.61,1.25,0.02,-0.06,0.01
8:05:03 PM,0.73,9.74,1.24,-0.00,0.01,0.01
8:05:03 PM,0.94,9.59,1.19,0.01,-0.00,0.01
8:05:03 PM,0.88,9.53,1.34,-0.02,-0.02,0.01
8:05:03 PM,0.80,9.66,1.28,0.00,-0.02,0.01
8:05:03 PM,0.55,9.73,1.42,0.01,-0.03,0.01
8:05:03 PM,0.84,9.60,1.12,0.02,-0.05,0.01
8:05:03 PM,0.32,9.77,1.38,0.02,-0.04,0.01
8:05:03 PM,0.35,9.65,1.30,0.02,0.00,0.01
8:05:03 PM,0.79,9.57,1.26,0.00,-0.07,0.01
8:05:03 PM,0.57,9.66,1.26,0.01,-0.04,0.01
8:05:04 PM,0.66,9.67,1.23,0.02,-0.04,0.01
8:05:04 PM,0.55,9.67,1.31,-0.01,-0.07,0.01
8:05:04 PM,0.42,9.69,1.29,-0.03,-0.02,0.01
8:05:04 PM,0.49,9.67,1.47,0.00,-0.07,0.01
8:05:04 PM,0.70,9.58,1.13,-0.02,0.01,0.01
8:05:04 PM,0.63,9.72,1.27,0.02,-0.04,0.01
8:05:04 PM,0.69,9.65,1.20,0.02,-0.02,0.01
8:05:04 PM,0.60,9.66,1.15,0.00,-0.05,0.01
8:05:04 PM,0.29,9.79,1.45,0.02,-0.00,0.01
8:05:04 PM,0.34,9.70,1.44,0.03,0.06,0.01
8:05:05 PM,0.65,9.71,1.44,0.02,0.01,0.01
8:05:05 PM,0.52,9.69,1.44,0.01,0.01,0.01
8:05:05 PM,0.22,9.73,1.69,0.04,0.02,0.01
8:05:05 PM,0.59,9.70,1.30,-0.03,-0.03,0.01
8:05:05 PM,0.57,9.70,1.35,-0.00,0.02,0.01
8:05:05 PM,0.67,9.64,1.41,-0.02,-0.04,0.01
8:05:05 PM,0.57,9.62,1.25,-0.01,0.03,0.01
8:05:05 PM,0.72,9.61,1.09,0.01,0.02,0.01
8:05:05 PM,0.50,9.73,1.36,-0.02,-0.04,0.01
8:05:06 PM,0.85,9.59,1.00,0.06,-0.04,0.01
8:05:06 PM,0.67,9.65,1.09,0.04,-0.02,0.01
8:05:06 PM,0.74,9.52,1.29,0.05,-0.01,0.01
8:05:06 PM,1.82,9.46,1.58,0.07,0.27,0.01
8:05:06 PM,0.98,9.39,1.46,-0.03,-0.09,0.01
8:05:06 PM,0.51,9.79,1.34,0.02,-0.12,0.01
8:05:06 PM,0.56,9.66,1.33,0.01,-0.07,0.01
8:05:06 PM,0.52,9.67,1.41,0.02,-0.03,0.01
8:05:06 PM,0.84,9.59,1.54,0.02,-0.03,0.01
8:05:06 PM,0.82,9.62,1.55,-0.04,-0.05,0.01
8:05:07 PM,0.47,9.69,1.58,-0.02,0.02,0.01
8:05:07 PM,0.36,9.71,1.49,0.01,-0.02,0.01
8:05:07 PM,0.66,9.66,1.57,0.00,-0.03,0.01
8:05:07 PM,0.93,9.63,1.30,0.02,-0.05,0.01
8:05:07 PM,0.77,9.64,1.51,-0.03,0.01,0.01
8:05:07 PM,0.67,9.64,1.36,0.02,0.01,0.01
8:05:07 PM,1.03,9.52,1.29,0.00,0.00,0.01
8:05:07 PM,0.91,9.54,1.27,0.02,0.01,0.01
8:05:07 PM,0.74,9.71,1.47,0.06,-0.04,0.01
8:05:07 PM,0.83,9.61,1.34,0.01,-0.03,0.01
8:05:08 PM,0.64,9.80,1.58,0.05,-0.06,0.01
8:05:08 PM,0.60,9.66,1.41,-0.01,-0.01,0.01
8:05:08 PM,0.63,9.59,1.32,0.02,-0.01,0.01
8:05:08 PM,0.85,9.58,1.28,0.01,-0.04,0.01
8:05:08 PM,0.66,9.65,1.47,-0.00,-0.01,0.01
8:05:08 PM,0.83,9.63,1.31,-0.03,-0.08,0.01
8:05:08 PM,0.41,9.81,1.39,0.07,-0.03,0.01
8:05:08 PM,0.73,9.60,1.38,0.02,0.04,0.01
8:05:09 PM,0.86,9.60,1.32,-0.01,-0.01,0.01
8:05:09 PM,0.85,9.64,1.46,-0.05,0.01,0.01
8:05:09 PM,0.84,9.64,1.47,-0.04,0.00,0.01
8:05:09 PM,0.82,9.59,1.39,0.02,-0.04,0.01
8:05:09 PM,0.74,9.61,1.43,0.03,0.01,0.01
8:05:09 PM,0.57,9.70,1.28,-0.00,-0.01,0.01
8:05:09 PM,0.60,9.63,1.44,0.02,-0.04,0.01
8:05:09 PM,0.53,9.80,1.26,0.05,-0.07,0.01
8:05:09 PM,0.62,9.61,1.61,0.05,0.01,0.01
8:05:09 PM,0.46,9.72,1.70,0.03,-0.01,0.01
8:05:09 PM,0.72,9.72,1.41,0.01,-0.05,0.01
8:05:10 PM,0.55,9.59,1.47,-0.00,-0.03,0.01
8:05:10 PM,0.68,9.61,1.16,0.02,0.00,0.01
8:05:10 PM,0.54,9.60,1.29,0.04,-0.02,0.01
8:05:10 PM,0.72,9.60,1.37,0.02,-0.04,0.01
8:05:10 PM,0.75,9.60,1.32,0.00,-0.03,0.01
8:05:10 PM,0.30,9.74,1.73,0.02,0.03,0.01
8:05:10 PM,0.71,9.64,1.56,0.06,-0.02,0.01
8:05:10 PM,0.78,9.65,1.60,-0.00,-0.03,0.01
8:05:11 PM,0.97,9.56,1.60,-0.02,-0.04,0.01
8:05:11 PM,0.77,9.56,1.66,0.03,-0.01,0.01
8:05:13 PM,1.06,9.53,1.67,-0.01,-0.05,0.01
8:05:14 PM,0.76,9.59,1.74,-0.07,-0.01,0.01
8:05:14 PM,0.66,9.63,1.58,-0.06,-0.00,0.01
8:05:14 PM,0.70,9.62,1.68,-0.01,-0.01,0.01
8:05:14 PM,0.66,9.67,1.58,-0.04,0.00,0.01
8:05:14 PM,0.47,9.72,1.44,-0.06,0.00,0.01
8:05:14 PM,0.44,9.68,1.50,-0.05,0.00,0.01
8:05:14 PM,0.91,9.51,1.42,-0.02,-0.02,0.01
8:05:14 PM,0.79,9.65,1.65,-0.02,0.09,0.01
8:05:14 PM,0.66,9.55,1.81,0.04,-0.04,0.01
8:05:14 PM,0.41,9.60,1.51,0.02,0.07,0.01
8:05:14 PM,0.43,9.61,1.53,-0.02,-0.00,0.01
8:05:14 PM,0.43,9.55,1.55,0.02,-0.05,0.01
8:05:14 PM,0.16,9.65,1.58,-0.02,-0.01,0.01
8:05:15 PM,0.67,9.58,1.54,0.02,-0.05,0.01
8:05:15 PM,0.71,9.56,1.88,-0.01,0.00,0.01
8:05:15 PM,0.86,9.45,1.95,-0.02,-0.06,0.01
8:05:15 PM,0.66,9.60,1.45,0.00,-0.06,0.01
8:05:15 PM,0.61,9.63,1.45,0.02,-0.02,0.01
8:05:15 PM,0.76,9.50,1.98,0.06,0.05,0.01
8:05:15 PM,0.79,9.45,2.12,0.02,-0.03,0.01
8:05:15 PM,0.87,9.53,1.99,-0.01,-0.08,0.01
8:05:15 PM,0.58,9.55,1.70,-0.01,-0.02,0.01
8:05:15 PM,0.40,9.56,1.77,0.02,0.01,0.01
8:05:16 PM,0.44,9.62,1.61,-0.00,0.01,0.01
8:05:16 PM,0.39,9.62,1.62,0.01,-0.01,0.01
8:05:16 PM,0.26,9.56,1.48,-0.01,-0.03,0.01
8:05:16 PM,0.42,9.57,1.66,0.05,0.03,0.01
8:05:16 PM,0.61,9.58,1.59,0.08,0.02,0.01
8:05:16 PM,0.58,9.52,1.66,0.02,0.02,0.01
8:05:16 PM,0.34,9.59,1.91,0.06,0.06,0.01
8:05:16 PM,0.57,9.61,2.05,0.05,-0.04,0.01
8:05:16 PM,0.62,9.66,2.02,0.03,-0.04,0.01
8:05:17 PM,0.81,9.55,1.80,-0.04,-0.06,0.01
8:05:17 PM,0.81,9.43,2.26,-0.04,-0.18,0.01
8:05:17 PM,0.43,9.52,1.73,-0.02,-0.09,0.01
8:05:17 PM,0.39,9.58,1.47,-0.04,-0.04,0.01
8:05:17 PM,0.31,9.70,1.46,-0.03,-0.02,0.01
8:05:17 PM,0.38,9.59,1.70,0.03,0.04,0.01
8:05:17 PM,0.36,9.63,1.93,0.02,0.01,0.01
8:05:17 PM,0.47,9.66,1.77,0.03,0.00,0.01
8:05:17 PM,0.61,9.56,1.62,-0.01,0.02,0.01
8:05:18 PM,0.41,9.61,1.68,0.04,0.02,0.01
8:05:18 PM,0.93,9.50,1.95,0.07,0.10,0.01
8:05:18 PM,0.62,9.59,2.09,0.06,0.04,0.01
8:05:18 PM,0.79,9.53,2.12,0.03,-0.02,0.01
8:05:18 PM,0.74,9.53,1.93,-0.04,-0.02,0.01
8:05:18 PM,0.41,9.57,1.89,-0.03,-0.02,0.01
8:05:18 PM,0.46,9.58,1.90,0.01,0.03,0.01
8:05:18 PM,0.73,9.48,1.86,0.02,-0.01,0.01
8:05:18 PM,0.82,9.52,1.77,0.00,-0.07,0.01
8:05:18 PM,0.62,9.45,1.90,0.06,-0.02,0.01
8:05:19 PM,0.47,9.50,1.80,0.03,-0.01,0.01
8:05:19 PM,0.36,9.67,1.84,0.06,0.03,0.01
8:05:19 PM,0.57,9.52,1.72,0.00,0.04,0.01
8:05:19 PM,0.61,9.56,2.34,-0.08,-0.00,0.01
8:05:19 PM,0.48,9.62,1.82,-0.03,-0.10,0.01
8:05:19 PM,0.80,9.46,1.97,0.01,-0.04,0.01
8:05:19 PM,0.47,9.56,1.86,-0.03,0.01,0.01
8:05:19 PM,0.42,9.56,1.72,-0.01,-0.04,0.01
8:05:19 PM,0.66,9.51,1.71,0.03,-0.04,0.01
8:05:20 PM,0.54,9.48,1.84,0.02,-0.01,0.01
8:05:20 PM,1.20,9.33,1.75,0.01,-0.06,0.01
8:05:20 PM,0.70,9.53,1.95,0.01,-0.06,0.01
8:05:20 PM,0.30,9.51,1.95,0.03,-0.03,0.01
8:05:20 PM,0.14,9.54,2.28,0.04,0.02,0.01
8:05:20 PM,0.62,9.46,2.06,0.05,0.01,0.01
8:05:20 PM,0.49,9.51,1.94,-0.00,0.03,0.01
8:05:20 PM,0.39,9.72,2.12,0.08,-0.05,0.01
8:05:20 PM,0.19,9.61,2.02,0.02,0.00,0.01
8:05:20 PM,0.40,9.56,1.77,-0.04,-0.00,0.01
8:05:21 PM,0.54,9.61,1.74,-0.02,0.00,0.01
8:05:21 PM,0.57,9.47,1.58,-0.02,0.03,0.01
8:05:21 PM,0.50,9.67,2.00,0.08,-0.01,0.01
8:05:21 PM,1.02,9.45,1.60,-0.05,-0.01,0.01
8:05:21 PM,0.47,9.52,1.73,0.04,-0.04,0.01
8:05:21 PM,0.56,9.62,1.81,0.05,-0.06,0.01
8:05:21 PM,0.93,9.47,1.64,0.09,-0.02,0.01
8:05:21 PM,0.35,9.63,1.64,-0.01,0.00,0.01
8:05:21 PM,0.46,9.53,1.74,-0.04,0.00,0.01
8:05:22 PM,0.29,9.68,1.83,0.01,-0.03,0.01
8:05:22 PM,0.36,9.63,1.96,0.04,0.00,0.01
8:05:22 PM,0.36,9.63,1.74,0.03,0.03,0.01
8:05:22 PM,0.25,9.73,2.11,0.04,-0.04,0.01
8:05:22 PM,0.30,9.63,1.79,0.00,0.03,0.01
8:05:22 PM,0.64,9.59,1.68,-0.01,-0.01,0.01
8:05:22 PM,0.80,9.34,1.47,0.06,-0.12,0.01
8:05:22 PM,0.71,9.62,1.56,0.00,-0.04,0.01
8:05:22 PM,0.84,9.49,1.51,0.01,-0.01,0.01
8:05:22 PM,0.47,9.55,1.69,-0.05,-0.02,0.01
8:05:23 PM,0.51,9.63,1.87,0.04,-0.00,0.01
8:05:23 PM,0.84,9.48,1.70,0.03,-0.05,0.01
8:05:23 PM,0.70,9.55,1.44,-0.03,-0.04,0.01
8:05:23 PM,0.59,9.55,1.52,0.02,0.01,0.01
8:05:23 PM,0.65,9.57,1.55,0.02,-0.03,0.01
8:05:23 PM,0.60,9.56,1.65,-0.03,-0.02,0.01
8:05:23 PM,0.64,9.60,1.58,-0.00,-0.03,0.01
8:05:23 PM,0.64,9.57,1.57,-0.01,-0.00,0.01
8:05:23 PM,0.46,9.61,1.63,-0.05,-0.01,0.01
8:05:24 PM,0.56,9.62,1.57,-0.03,-0.02,0.01
8:05:24 PM,0.51,9.61,1.70,-0.00,-0.02,0.01
8:05:24 PM,0.49,9.59,1.76,0.05,-0.04,0.01
8:05:24 PM,0.45,9.65,1.99,0.05,-0.04,0.01
8:05:24 PM,0.51,9.52,1.82,0.05,0.01,0.01
8:05:24 PM,0.70,9.52,1.83,0.03,-0.06,0.01
8:05:24 PM,0.12,9.64,2.31,0.08,-0.03,0.01
8:05:24 PM,0.47,9.59,1.92,0.07,-0.04,0.01
8:05:24 PM,0.68,9.54,1.95,0.06,0.00,0.01
8:05:24 PM,0.39,9.68,2.09,0.05,-0.04,0.01
8:05:25 PM,0.62,9.50,1.77,0.00,-0.03,0.01
8:05:25 PM,0.46,9.64,1.95,0.01,-0.00,0.01
8:05:25 PM,0.68,9.55,1.94,-0.03,0.01,0.01
8:05:25 PM,0.55,9.60,1.99,-0.01,-0.01,0.01
8:05:25 PM,0.55,9.53,1.78,0.02,0.00,0.01
8:05:25 PM,0.63,9.44,1.73,-0.03,-0.04,0.01
8:05:25 PM,0.44,9.53,1.82,-0.01,0.02,0.01
8:05:25 PM,0.51,9.59,1.93,-0.00,0.02,0.01
8:05:25 PM,0.57,9.55,2.03,-0.00,-0.04,0.01
8:05:26 PM,0.37,9.52,1.97,0.01,-0.01,0.01
8:05:26 PM,0.48,9.59,1.68,-0.02,-0.01,0.01
8:05:26 PM,0.79,9.50,1.57,0.00,0.01,0.01
8:05:26 PM,0.59,9.43,2.34,0.02,-0.05,0.01
8:05:26 PM,0.41,9.42,2.29,-0.00,-0.04,0.01
8:05:26 PM,0.62,9.43,1.91,0.03,-0.05,0.01
8:05:26 PM,0.58,9.56,1.94,0.01,-0.04,0.01
8:05:26 PM,0.70,9.54,2.06,0.02,-0.01,0.01
8:05:26 PM,0.62,9.52,1.92,0.00,-0.07,0.01
8:05:26 PM,0.61,9.52,2.03,0.03,0.01,0.01
8:05:27 PM,0.71,9.46,1.89,0.03,-0.02,0.01
8:05:27 PM,0.69,9.43,1.99,0.05,-0.04,0.01
8:05:27 PM,0.80,9.55,1.77,0.04,-0.06,0.01
8:05:27 PM,0.66,9.57,1.80,0.02,-0.05,0.01
8:05:27 PM,0.69,9.47,1.83,0.01,-0.02,0.01
8:05:27 PM,0.71,9.53,1.69,-0.01,-0.09,0.01
8:05:27 PM,0.34,9.47,2.03,0.02,-0.05,0.01
8:05:27 PM,0.74,9.55,1.79,0.03,-0.06,0.01
8:05:27 PM,0.80,9.72,1.75,0.16,-0.05,0.01
8:05:28 PM,0.95,9.48,1.58,0.01,-0.08,0.01
8:05:28 PM,0.65,9.61,1.74,0.02,-0.02,0.01
8:05:28 PM,0.84,9.53,1.67,-0.03,-0.01,0.01
8:05:28 PM,0.78,9.46,1.71,0.00,-0.04,0.01
8:05:28 PM,0.55,9.68,1.83,0.02,-0.04,0.01
8:05:28 PM,0.80,9.57,1.61,-0.03,-0.01,0.01
8:05:28 PM,0.51,9.59,1.96,0.06,0.05,0.01
8:05:28 PM,0.87,9.51,1.67,0.03,0.02,0.01
8:05:28 PM,0.74,9.49,1.80,0.04,0.01,0.01
8:05:28 PM,0.83,9.44,1.79,0.03,0.00,0.01
8:05:29 PM,0.64,9.58,1.88,-0.00,-0.04,0.01
8:05:29 PM,0.76,9.43,1.68,0.02,-0.06,0.01
8:05:29 PM,0.80,9.47,1.69,0.01,-0.06,0.01
8:05:29 PM,0.68,9.51,1.70,-0.03,-0.01,0.01
8:05:29 PM,0.92,9.44,1.52,-0.00,-0.02,0.01
8:05:29 PM,0.64,9.65,1.92,0.03,0.03,0.01
8:05:29 PM,0.63,9.53,1.94,-0.00,-0.00,0.01
8:05:29 PM,0.94,9.48,1.69,-0.01,-0.04,0.01
8:05:29 PM,0.80,9.53,1.56,-0.02,-0.06,0.01
8:05:30 PM,1.00,9.51,1.54,0.00,-0.08,0.01
8:05:30 PM,0.93,9.42,1.47,0.00,-0.06,0.01
8:05:30 PM,0.73,9.67,1.87,0.03,-0.02,0.01
8:05:30 PM,0.66,9.61,1.87,0.04,0.01,0.01
8:05:30 PM,0.73,9.49,1.85,-0.06,-0.01,0.01
8:05:30 PM,0.84,9.53,1.75,0.03,-0.02,0.01
8:05:30 PM,0.85,9.50,1.61,-0.02,0.01,0.01
8:05:30 PM,0.88,9.50,1.67,0.00,-0.02,0.01
8:05:30 PM,0.75,9.56,1.55,0.00,-0.04,0.01
8:05:31 PM,0.74,9.56,1.75,-0.06,-0.01,0.01
8:05:31 PM,0.75,9.56,1.61,0.01,0.03,0.01
8:05:31 PM,0.89,9.45,1.70,0.01,-0.04,0.01
8:05:31 PM,1.04,9.44,1.41,0.00,-0.03,0.01
8:05:31 PM,0.94,9.50,1.45,0.02,-0.08,0.01
8:05:31 PM,0.82,9.55,1.60,0.01,-0.04,0.01
8:05:31 PM,1.24,9.48,1.45,0.05,-0.05,0.01
8:05:31 PM,0.86,9.53,1.65,-0.05,-0.02,0.01
8:05:31 PM,0.96,9.47,1.67,-0.02,-0.01,0.01
8:05:31 PM,0.74,9.64,1.73,0.01,-0.03,0.01
8:05:32 PM,0.87,9.55,1.59,0.02,0.01,0.01
8:05:32 PM,0.79,9.45,1.87,0.04,0.03,0.01
8:05:32 PM,0.82,9.51,1.58,0.02,-0.07,0.01
8:05:32 PM,0.71,9.66,1.68,0.02,-0.02,0.01
8:05:32 PM,0.93,9.53,1.73,0.02,-0.01,0.01
8:05:32 PM,0.78,9.51,1.81,-0.01,0.04,0.01
8:05:32 PM,0.85,9.44,1.80,0.00,0.02,0.01
8:05:32 PM,0.65,9.67,1.53,-0.01,0.00,0.01
8:05:32 PM,0.78,9.54,1.60,0.04,-0.01,0.01
8:05:33 PM,0.91,9.57,1.68,0.03,0.02,0.01
8:05:33 PM,0.83,9.62,1.97,0.05,-0.01,0.01
8:05:33 PM,0.74,9.67,1.70,0.00,0.01,0.01
8:05:33 PM,0.98,9.45,1.49,-0.03,-0.07,0.01
8:05:33 PM,0.67,9.63,1.60,-0.01,-0.04,0.01
8:05:33 PM,0.87,9.55,1.54,0.00,-0.04,0.01
8:05:33 PM,0.83,9.52,1.64,-0.02,-0.06,0.01
8:05:33 PM,0.79,9.54,1.75,-0.03,-0.02,0.01
8:05:33 PM,0.98,9.44,1.63,-0.04,-0.00,0.01
8:05:33 PM,0.74,9.57,1.66,-0.00,-0.07,0.01
8:05:34 PM,0.90,9.50,1.75,0.02,-0.02,0.01
8:05:34 PM,0.89,9.42,1.85,-0.01,0.00,0.01
8:05:34 PM,0.71,9.59,1.78,-0.00,-0.04,0.01
8:05:34 PM,0.63,9.57,1.92,0.03,0.01,0.01
8:05:34 PM,0.77,9.50,1.70,0.04,0.01,0.01
8:05:34 PM,0.85,9.59,1.58,0.02,-0.01,0.01
8:05:34 PM,0.97,9.52,1.59,-0.03,-0.05,0.01
8:05:34 PM,0.83,9.58,1.48,0.04,-0.05,0.01
8:05:34 PM,0.87,9.49,1.49,-0.01,0.02,0.01
8:05:35 PM,0.97,9.50,1.51,0.03,0.07,0.01
8:05:35 PM,0.92,9.55,1.61,0.00,-0.01,0.01
8:05:35 PM,0.81,9.67,1.56,0.03,-0.02,0.01
8:05:35 PM,0.87,9.57,1.78,0.07,0.07,0.01
8:05:35 PM,0.11,9.80,1.72,0.04,-0.09,0.01
8:05:35 PM,0.68,9.59,1.91,-0.00,-0.02,0.01
8:05:35 PM,0.58,9.59,2.11,0.07,-0.00,0.01
8:05:35 PM,0.58,9.52,2.01,-0.05,0.07,0.01
8:05:35 PM,0.96,9.51,1.83,-0.06,-0.03,0.01
8:05:35 PM,1.16,9.45,1.46,-0.01,-0.07,0.01
8:05:36 PM,1.07,9.57,1.42,0.02,-0.01,0.01
8:05:36 PM,1.19,9.44,1.50,0.00,-0.05,0.01
8:05:36 PM,0.96,9.52,1.72,-0.03,-0.02,0.01
8:05:36 PM,0.83,9.63,1.73,-0.00,-0.12,0.01
8:05:36 PM,1.00,9.56,1.60,0.02,-0.01,0.01
8:05:36 PM,0.79,9.58,1.78,-0.00,0.02,0.01
8:05:36 PM,0.82,9.51,1.67,0.00,-0.01,0.01
8:05:36 PM,0.92,9.53,1.79,0.02,0.02,0.01
8:05:36 PM,1.03,9.43,1.72,0.02,-0.04,0.01
8:05:37 PM,0.89,9.51,1.87,0.02,-0.06,0.01
8:05:37 PM,1.03,9.46,1.75,0.03,-0.02,0.01
8:05:37 PM,0.87,9.48,1.82,-0.03,-0.04,0.01
8:05:37 PM,0.72,9.45,2.01,0.00,0.01,0.01
8:05:37 PM,1.04,9.39,1.56,-0.01,-0.06,0.01
8:05:37 PM,0.82,9.51,1.68,0.03,-0.02,0.01
8:05:37 PM,0.87,9.60,1.76,0.02,-0.03,0.01
8:05:37 PM,1.06,9.44,1.80,0.02,-0.04,0.01
8:05:37 PM,1.10,9.47,1.76,0.00,-0.06,0.01
8:05:37 PM,1.08,9.41,1.71,0.02,-0.09,0.01
8:05:38 PM,0.85,9.59,1.77,0.03,-0.03,0.01
8:05:38 PM,0.94,9.57,1.47,0.00,-0.03,0.01
8:05:38 PM,1.00,9.52,1.52,0.02,-0.01,0.01
8:05:38 PM,0.84,9.50,1.76,0.02,0.01,0.01
8:05:38 PM,1.12,9.55,1.55,0.00,-0.00,0.01
8:05:38 PM,1.01,9.49,1.67,-0.01,-0.05,0.01
8:05:38 PM,0.90,9.49,1.71,-0.01,-0.04,0.01
8:05:38 PM,0.88,9.60,1.49,0.01,-0.06,0.01
8:05:38 PM,0.83,9.53,1.64,0.02,-0.01,0.01
8:05:39 PM,0.92,9.50,1.66,0.02,0.00,0.01
8:05:39 PM,0.76,9.59,1.67,0.01,-0.02,0.01
8:05:39 PM,0.61,9.62,1.13,0.02,-0.07,0.01
8:05:39 PM,0.82,9.56,1.71,0.03,0.01,0.01
8:05:39 PM,0.97,9.51,1.47,-0.01,-0.02,0.01
8:05:39 PM,0.96,9.53,1.62,0.02,0.00,0.01
8:05:39 PM,0.87,9.53,1.66,0.01,0.02,0.01
8:05:39 PM,0.81,9.59,1.58,0.05,0.01,0.01
8:05:39 PM,0.98,9.59,1.60,0.02,0.01,0.01
8:05:39 PM,0.98,9.52,1.56,-0.00,-0.00,0.01
8:05:40 PM,0.94,9.60,1.54,0.02,-0.05,0.01
8:05:40 PM,0.92,9.53,1.64,-0.00,0.00,0.01
8:05:40 PM,0.99,9.53,1.63,-0.00,-0.00,0.01
8:05:40 PM,1.06,9.53,1.55,-0.00,-0.03,0.01
8:05:40 PM,0.85,9.60,1.69,0.03,-0.04,0.01
8:05:40 PM,0.91,9.60,1.58,0.01,-0.07,0.01
8:05:40 PM,0.99,9.46,1.49,-0.01,-0.05,0.01
8:05:40 PM,0.79,9.51,1.56,-0.00,-0.02,0.01
8:05:40 PM,0.70,9.62,1.62,-0.00,-0.01,0.01
8:05:41 PM,0.68,9.56,1.88,0.03,0.01,0.01
8:05:41 PM,0.85,9.59,1.47,0.02,-0.05,0.01
8:05:41 PM,0.92,9.55,1.57,0.04,-0.03,0.01
8:05:41 PM,1.08,9.47,1.49,0.00,-0.01,0.01
8:05:41 PM,0.79,9.68,1.56,0.03,-0.01,0.01
8:05:41 PM,0.99,9.48,1.32,0.02,-0.03,0.01
8:05:41 PM,0.95,9.55,1.52,0.01,-0.06,0.01
8:05:41 PM,1.11,9.47,1.49,0.01,-0.05,0.01
8:05:41 PM,0.94,9.54,1.66,-0.01,0.02,0.01
8:05:41 PM,0.93,9.59,1.77,0.01,0.00,0.01
8:05:42 PM,0.91,9.51,1.60,-0.02,-0.02,0.01
8:05:42 PM,0.88,9.54,1.59,0.01,-0.00,0.01
8:05:42 PM,0.89,9.53,1.72,0.01,-0.02,0.01
8:05:42 PM,0.99,9.50,1.73,0.03,0.00,0.01
8:05:42 PM,0.89,9.51,1.76,0.01,0.02,0.01
8:05:42 PM,1.13,9.52,1.37,0.01,-0.05,0.01
8:05:42 PM,1.01,9.54,1.59,0.01,0.00,0.01
8:05:42 PM,0.87,9.60,1.81,0.02,-0.02,0.01
8:05:42 PM,0.91,9.52,1.65,0.02,0.01,0.01
8:05:43 PM,0.96,9.59,1.66,-0.01,0.02,0.01
8:05:43 PM,0.93,9.57,1.74,0.01,0.00,0.01
8:05:43 PM,1.06,9.49,1.65,-0.02,-0.02,0.01
8:05:43 PM,1.00,9.59,1.61,-0.00,-0.02,0.01
8:05:43 PM,1.01,9.57,1.53,0.01,-0.02,0.01
8:05:43 PM,1.06,9.50,1.67,0.01,-0.03,0.01
8:05:43 PM,1.23,9.40,1.53,0.00,-0.04,0.01
8:05:43 PM,0.92,9.58,1.73,0.00,-0.03,0.01
8:05:43 PM,1.01,9.54,1.53,0.01,-0.03,0.01
8:05:44 PM,0.95,9.50,1.74,-0.02,-0.00,0.01
8:05:44 PM,1.09,9.53,1.64,-0.01,-0.01,0.01
8:05:44 PM,0.83,9.54,1.71,0.01,-0.01,0.01
8:05:44 PM,0.95,9.58,1.70,0.01,-0.03,0.01
8:05:44 PM,1.18,9.48,1.44,0.01,-0.03,0.01
8:05:44 PM,1.09,9.49,1.66,0.03,-0.03,0.01
8:05:44 PM,1.03,9.52,1.52,0.01,-0.04,0.01
8:05:44 PM,0.86,9.58,1.64,-0.00,-0.02,0.01
8:05:44 PM,0.89,9.50,1.77,0.01,-0.01,0.01
8:05:44 PM,0.90,9.49,1.68,-0.02,-0.01,0.01
8:05:45 PM,0.83,9.52,1.99,0.04,0.01,0.01
8:05:45 PM,0.95,9.53,1.68,-0.04,0.01,0.01
8:05:45 PM,1.07,9.55,1.60,0.02,-0.08,0.01
8:05:45 PM,0.86,9.60,1.54,-0.00,-0.01,0.01
8:05:45 PM,0.93,9.52,1.65,-0.01,-0.02,0.01
8:05:45 PM,0.97,9.50,1.73,-0.04,-0.02,0.01
8:05:45 PM,0.84,9.63,1.67,0.02,-0.04,0.01
8:05:45 PM,0.94,9.52,1.66,0.02,-0.05,0.01
8:05:45 PM,0.80,9.62,1.45,0.02,-0.07,0.01
8:05:46 PM,0.70,9.62,1.53,-0.01,0.01,0.01
8:05:46 PM,1.06,9.51,1.55,-0.01,-0.06,0.01
8:05:46 PM,0.88,9.63,1.50,-0.00,-0.05,0.01
8:05:46 PM,0.84,9.56,1.52,0.00,-0.01,0.01
8:05:46 PM,1.01,9.48,1.47,-0.02,-0.04,0.01
8:05:46 PM,0.92,9.58,1.51,0.00,0.00,0.01
8:05:46 PM,0.73,9.59,1.63,-0.00,-0.01,0.01
8:05:46 PM,0.84,9.59,1.57,0.00,-0.02,0.01
8:05:46 PM,0.98,9.58,1.60,-0.01,-0.02,0.01
8:05:46 PM,0.92,9.59,1.60,-0.00,-0.02,0.01
8:05:47 PM,0.96,9.55,1.49,-0.04,-0.01,0.01
8:05:47 PM,0.71,9.53,1.70,-0.01,-0.04,0.01
8:05:47 PM,0.75,9.63,1.55,0.03,-0.04,0.01
8:05:47 PM,0.92,9.60,1.53,-0.01,-0.06,0.01
8:05:47 PM,0.90,9.55,1.47,-0.00,-0.00,0.01
8:05:47 PM,1.03,9.52,1.65,-0.00,-0.01,0.01
8:05:47 PM,0.95,9.57,1.79,-0.03,-0.05,0.01
8:05:47 PM,0.79,9.60,1.85,0.03,-0.04,0.01
8:05:47 PM,0.80,9.51,1.70,0.11,-0.02,0.01
8:05:48 PM,0.89,9.56,1.64,-0.01,0.01,0.01
8:05:48 PM,0.83,9.71,1.69,0.00,0.00,0.01
8:05:48 PM,0.84,9.51,1.80,-0.03,-0.05,0.01
8:05:48 PM,0.82,9.56,1.83,-0.01,0.02,0.01
8:05:48 PM,0.61,9.55,1.98,-0.02,0.01,0.01
8:05:48 PM,0.88,9.54,1.86,-0.02,-0.02,0.01
8:05:48 PM,0.83,9.52,1.65,0.05,-0.06,0.01
8:05:48 PM,1.18,9.41,1.31,-0.01,-0.08,0.01
8:05:48 PM,0.81,9.57,1.68,-0.00,-0.07,0.01
8:05:48 PM,0.77,9.55,1.64,-0.04,-0.01,0.01
8:05:49 PM,0.94,9.53,1.59,-0.02,0.00,0.01
8:05:49 PM,0.81,9.54,1.69,-0.00,0.03,0.01
8:05:49 PM,1.02,9.48,1.70,0.01,0.06,0.01
8:05:49 PM,1.07,9.49,1.55,-0.01,0.01,0.01
8:05:49 PM,1.08,9.45,1.46,0.00,-0.03,0.01
8:05:49 PM,0.87,9.61,1.74,-0.00,-0.11,0.01
8:05:49 PM,0.89,9.56,1.43,0.01,-0.03,0.01
8:05:49 PM,0.58,9.67,1.82,0.03,-0.01,0.01
8:05:49 PM,0.88,9.48,1.72,0.04,0.01,0.01
8:05:50 PM,0.90,9.53,1.69,0.03,0.03,0.01
8:05:50 PM,0.89,9.58,1.68,0.04,0.01,0.01
8:05:50 PM,1.22,9.44,1.46,0.03,-0.04,0.01
8:05:50 PM,1.03,9.53,1.67,-0.02,-0.06,0.01
8:05:50 PM,0.73,9.53,1.74,-0.01,-0.03,0.01
8:05:50 PM,0.86,9.49,1.57,0.00,-0.03,0.01
8:05:50 PM,0.71,9.59,1.57,0.04,-0.06,0.01
8:05:50 PM,1.00,9.53,1.45,0.00,0.01,0.01
8:05:50 PM,0.97,9.57,1.61,-0.01,-0.03,0.01
8:05:50 PM,0.75,9.57,1.69,0.02,-0.02,0.01
8:05:51 PM,0.75,9.54,1.68,-0.03,0.03,0.01
8:05:51 PM,0.29,9.66,1.61,0.05,0.04,0.01
8:05:51 PM,0.66,9.66,1.58,0.01,-0.03,0.01
8:05:51 PM,1.00,9.49,1.48,-0.04,-0.02,0.01
8:05:51 PM,-0.33,9.71,1.17,0.06,0.01,0.01
8:05:51 PM,0.22,9.67,1.67,0.01,0.07,0.01
8:05:51 PM,0.32,9.67,1.65,0.01,0.02,0.01
8:05:51 PM,0.60,9.65,1.87,0.02,-0.11,0.01
8:05:51 PM,0.61,10.21,1.58,-0.09,0.02,0.01
8:05:52 PM,0.47,9.78,1.38,0.03,0.00,0.01
8:05:52 PM,0.50,9.68,1.61,0.01,0.03,0.01
8:05:52 PM,0.99,9.56,1.48,-0.03,-0.07,0.01
8:05:52 PM,0.75,9.64,1.59,-0.10,-0.17,0.01
8:05:52 PM,0.55,9.65,1.35,-0.05,-0.10,0.01
8:05:52 PM,0.54,9.59,1.17,-0.01,0.00,0.01
8:05:52 PM,0.18,9.69,1.42,0.02,0.04,0.01
8:05:52 PM,0.73,9.50,1.33,0.04,0.01,0.01
8:05:52 PM,0.72,9.49,1.48,0.00,-0.02,0.01
8:05:52 PM,0.37,9.67,1.57,0.03,-0.02,0.01
8:05:53 PM,-0.36,9.98,1.84,0.09,0.05,0.01
8:05:53 PM,-0.03,9.85,1.30,0.07,-0.02,0.01
8:05:53 PM,0.43,9.59,1.47,0.06,-0.01,0.01
8:05:53 PM,0.36,9.71,1.59,0.03,-0.08,0.01
8:05:53 PM,0.48,9.62,2.05,-0.09,0.00,0.01
8:05:53 PM,0.54,9.60,1.75,-0.05,-0.04,0.01
8:05:53 PM,0.88,9.50,1.79,-0.06,-0.03,0.01
8:05:53 PM,0.84,9.55,1.92,-0.04,-0.05,0.01
8:05:53 PM,0.82,9.55,1.74,-0.01,0.02,0.01
8:05:54 PM,0.83,9.48,1.84,-0.04,-0.04,0.01
8:05:54 PM,1.19,9.83,0.65,-0.10,0.13,0.01
8:05:54 PM,0.62,9.51,2.16,0.04,0.10,0.01
8:05:54 PM,0.34,9.80,1.70,0.07,0.03,0.01
8:05:54 PM,0.64,9.54,1.78,0.02,-0.01,0.01
8:05:54 PM,0.49,9.59,1.98,0.02,-0.01,0.01
8:05:54 PM,0.60,9.66,1.73,0.03,-0.00,0.01
8:05:54 PM,0.45,9.62,1.64,0.01,0.01,0.01
8:05:54 PM,0.81,9.56,1.61,0.09,0.03,0.01
8:05:54 PM,0.35,9.59,1.53,0.02,0.03,0.01
8:05:55 PM,0.50,9.61,1.71,0.02,0.06,0.01
8:05:55 PM,0.33,9.62,2.04,0.03,-0.02,0.01
8:05:55 PM,0.32,9.65,1.55,0.06,0.02,0.01
8:05:55 PM,0.30,9.59,1.56,0.03,0.08,0.01
8:05:55 PM,0.52,9.47,1.66,0.04,0.06,0.01
8:05:55 PM,0.37,9.59,1.58,0.02,0.04,0.01
8:05:55 PM,0.78,9.52,1.78,0.01,0.01,0.01
8:05:55 PM,0.71,9.58,1.71,-0.01,-0.06,0.01
8:05:55 PM,0.51,9.49,2.00,0.07,-0.07,0.01
8:05:56 PM,0.49,9.62,1.64,0.01,-0.04,0.01
8:05:56 PM,0.57,9.52,1.55,0.02,-0.03,0.01
8:05:56 PM,0.47,9.51,1.74,-0.02,-0.00,0.01
8:05:56 PM,0.58,9.54,1.66,0.02,-0.07,0.01
8:05:56 PM,0.45,9.58,1.84,-0.01,-0.07,0.01
8:05:56 PM,0.41,9.68,1.70,0.07,-0.07,0.01
8:05:56 PM,0.66,9.55,1.63,0.04,-0.02,0.01
8:05:56 PM,0.56,9.58,1.63,0.01,-0.05,0.01
8:05:56 PM,0.48,9.60,1.56,0.03,0.01,0.01
8:05:57 PM,0.79,9.51,1.59,0.01,-0.01,0.01
8:05:57 PM,0.38,9.59,1.89,-0.03,-0.02,0.01
8:05:57 PM,0.53,9.57,1.79,0.00,-0.05,0.01
8:05:57 PM,0.17,9.70,1.64,0.04,-0.06,0.01
8:05:57 PM,0.42,9.59,1.35,0.02,-0.04,0.01
8:05:57 PM,0.17,9.66,1.67,-0.02,0.01,0.01
8:05:57 PM,0.31,9.68,1.75,0.04,0.00,0.01
8:05:57 PM,0.69,9.43,1.82,0.02,0.02,0.01
8:05:57 PM,0.68,9.58,1.88,-0.00,0.02,0.01
8:05:58 PM,0.34,9.58,1.79,0.01,-0.01,0.01
8:05:58 PM,0.45,9.67,1.72,0.04,-0.05,0.01
8:05:58 PM,0.47,9.49,1.87,-0.01,-0.01,0.01
8:05:58 PM,0.57,9.65,1.66,0.01,0.05,0.01
8:05:58 PM,0.41,9.56,1.78,-0.01,-0.02,0.01
8:05:58 PM,0.34,9.61,1.79,-0.01,-0.02,0.01
8:05:58 PM,0.45,9.55,1.64,-0.02,-0.08,0.01
8:05:58 PM,0.26,9.63,1.63,-0.03,-0.11,0.01
8:05:58 PM,0.17,9.61,1.77,0.03,-0.04,0.01
8:05:58 PM,0.28,9.65,1.63,-0.02,0.01,0.01
8:05:59 PM,0.37,9.66,1.80,0.05,-0.01,0.01
8:05:59 PM,0.79,9.52,1.95,-0.02,0.05,0.01
8:05:59 PM,0.85,9.51,2.11,-0.03,-0.01,0.01
8:05:59 PM,0.77,9.50,1.77,-0.04,-0.06,0.01
8:05:59 PM,0.23,9.61,2.20,0.02,-0.00,0.01
8:05:59 PM,0.50,9.61,1.83,-0.02,0.03,0.01
8:05:59 PM,0.79,9.55,1.47,-0.01,-0.02,0.01
8:05:59 PM,0.50,9.54,1.69,0.01,-0.02,0.01
8:05:59 PM,0.48,9.65,1.91,0.00,0.02,0.01
8:05:59 PM,0.45,9.58,1.83,0.00,-0.01,0.01
8:06:00 PM,0.39,9.59,1.74,-0.03,-0.07,0.01
8:06:00 PM,0.76,9.51,1.50,-0.03,-0.03,0.01
8:06:00 PM,0.70,9.63,1.63,-0.04,-0.05,0.01
8:06:00 PM,0.46,9.61,1.81,-0.02,-0.01,0.01
8:06:00 PM,0.67,9.58,1.69,0.02,-0.06,0.01
8:06:00 PM,0.46,9.57,1.79,0.00,-0.06,0.01
8:06:00 PM,0.39,9.56,1.80,-0.05,-0.12,0.01
8:06:00 PM,0.35,9.59,1.88,0.01,-0.03,0.01
8:06:00 PM,0.36,9.63,1.80,0.01,-0.01,0.01
8:06:01 PM,0.57,9.55,1.76,0.03,-0.02,0.01
8:06:01 PM,0.79,9.46,1.70,-0.01,-0.00,0.01
8:06:01 PM,0.51,9.65,1.72,0.01,-0.04,0.01
8:06:01 PM,0.43,9.61,1.90,0.04,-0.02,0.01
8:06:01 PM,0.44,9.62,1.71,0.05,-0.07,0.01
8:06:01 PM,0.35,9.64,1.68,0.02,-0.07,0.01
8:06:01 PM,0.28,9.51,1.83,0.00,-0.01,0.01
8:06:01 PM,0.62,9.56,1.75,-0.03,0.02,0.01
8:06:01 PM,1.05,9.47,1.75,-0.02,-0.03,0.01
8:06:01 PM,0.80,9.55,1.76,-0.02,-0.02,0.01
8:06:02 PM,0.42,9.67,1.90,0.00,-0.04,0.01
8:06:02 PM,0.47,9.54,1.79,0.01,-0.02,0.01
8:06:02 PM,0.34,9.61,1.79,0.03,0.00,0.01
8:06:02 PM,0.54,9.61,1.70,0.03,-0.02,0.01
8:06:02 PM,0.91,9.45,1.49,0.01,-0.05,0.01
8:06:02 PM,0.50,9.66,1.68,-0.00,-0.04,0.01
8:06:02 PM,0.41,9.66,1.72,0.02,-0.04,0.01
8:06:02 PM,0.52,9.56,1.57,-0.02,-0.00,0.01
8:06:02 PM,0.43,9.57,1.58,-0.04,0.01,0.01
8:06:03 PM,0.35,9.65,1.82,-0.02,0.01,0.01
8:06:03 PM,0.29,9.73,1.74,0.00,-0.03,0.01
8:06:03 PM,0.35,9.64,1.84,0.02,0.02,0.01
8:06:03 PM,0.35,9.57,1.96,0.00,0.04,0.01
8:06:03 PM,0.62,9.56,1.95,-0.02,-0.02,0.01
8:06:03 PM,0.62,9.59,1.92,0.02,0.00,0.01
8:06:03 PM,0.50,9.61,1.88,0.04,0.01,0.01
8:06:03 PM,0.52,9.62,2.02,0.01,0.00,0.01
8:06:03 PM,0.48,9.52,2.04,0.01,0.15,0.01
8:06:03 PM,0.45,9.58,2.05,0.05,0.06,0.01
8:06:04 PM,0.49,9.60,1.71,-0.03,-0.01,0.01
8:06:04 PM,0.58,9.57,1.72,0.03,-0.04,0.01
8:06:04 PM,0.49,9.69,1.84,0.04,0.01,0.01
8:06:04 PM,0.16,9.76,1.80,0.07,-0.00,0.01
8:06:04 PM,0.68,9.50,1.66,0.02,-0.00,0.01
8:06:04 PM,0.74,9.55,1.56,-0.01,-0.00,0.01
8:06:04 PM,0.91,9.48,1.50,0.01,-0.04,0.01
8:06:04 PM,0.53,9.63,1.74,0.02,-0.06,0.01
8:06:04 PM,0.42,9.62,1.64,0.01,-0.01,0.01
8:06:05 PM,0.43,9.68,1.66,0.04,-0.01,0.01
8:06:05 PM,0.61,9.61,1.60,0.02,-0.00,0.01
8:06:05 PM,0.48,9.75,1.84,0.05,-0.02,0.01
8:06:05 PM,0.49,9.58,1.85,0.02,0.03,0.01
8:06:05 PM,0.74,9.61,1.60,0.01,-0.04,0.01
8:06:05 PM,0.52,9.54,1.77,0.01,-0.03,0.01
8:06:05 PM,0.62,9.64,1.73,0.01,-0.01,0.01
8:06:05 PM,0.67,9.56,1.57,0.01,-0.03,0.01
8:06:05 PM,0.48,9.64,1.63,0.01,-0.00,0.01
8:06:05 PM,0.44,9.71,1.66,0.04,0.00,0.01
8:06:06 PM,0.87,9.50,1.66,0.01,0.01,0.01
8:06:06 PM,0.78,9.57,1.59,0.02,-0.05,0.01
8:06:06 PM,0.31,9.72,1.63,0.03,-0.02,0.01
8:06:06 PM,0.54,9.54,1.53,0.00,-0.02,0.01
8:06:06 PM,0.67,9.55,1.70,-0.01,-0.01,0.01
8:06:06 PM,0.80,9.57,1.76,0.02,-0.02,0.01
8:06:06 PM,0.81,9.52,1.59,0.00,0.02,0.01
8:06:06 PM,0.46,9.63,1.75,0.00,-0.01,0.01
8:06:06 PM,0.59,9.61,1.73,0.03,-0.06,0.01
8:06:07 PM,0.45,9.64,1.99,0.02,0.00,0.01
8:06:07 PM,0.89,9.55,1.60,-0.00,-0.01,0.01
8:06:07 PM,0.24,9.76,1.79,0.02,-0.03,0.01
8:06:07 PM,0.28,9.62,1.64,0.06,0.06,0.01
8:06:07 PM,1.15,9.42,1.76,0.02,-0.00,0.01
8:06:07 PM,0.64,9.60,1.66,0.01,-0.04,0.01
8:06:07 PM,0.52,9.66,1.60,0.02,-0.02,0.01
8:06:07 PM,0.85,9.57,1.39,0.01,-0.02,0.01
8:06:07 PM,0.58,9.71,1.63,0.03,-0.00,0.01
8:06:08 PM,0.62,9.59,1.86,0.02,0.02,0.01
8:06:08 PM,0.62,9.53,1.77,0.00,-0.02,0.01
8:06:08 PM,0.79,9.49,1.65,0.02,-0.03,0.01
8:06:08 PM,0.51,9.65,1.75,0.01,-0.04,0.01
8:06:08 PM,0.47,9.67,1.76,0.00,0.04,0.01
8:06:08 PM,0.41,9.56,1.79,0.03,0.04,0.01
8:06:08 PM,0.60,9.61,1.50,0.01,-0.02,0.01
8:06:08 PM,0.38,9.70,1.64,0.03,-0.05,0.01
8:06:08 PM,0.52,9.65,1.51,0.00,-0.05,0.01
8:06:08 PM,0.67,9.60,1.50,0.00,-0.02,0.01
8:06:09 PM,1.19,9.57,1.90,-0.02,-0.11,0.01
8:06:09 PM,0.60,9.63,1.81,0.00,-0.07,0.01
8:06:09 PM,0.30,9.61,1.53,0.03,-0.04,0.01
8:06:09 PM,0.45,9.67,1.67,0.04,-0.00,0.01
8:06:09 PM,0.50,9.58,1.56,0.03,-0.01,0.01
8:06:09 PM,0.52,9.64,1.63,0.01,0.01,0.01
8:06:09 PM,0.59,9.50,1.48,0.05,0.06,0.01
8:06:09 PM,1.22,9.51,1.73,-0.06,-0.07,0.01
8:06:09 PM,0.40,9.74,1.70,0.03,-0.01,0.01
8:06:10 PM,0.92,9.65,1.83,0.10,-0.14,0.01
8:06:10 PM,0.77,9.67,1.51,0.00,-0.05,0.01
8:06:10 PM,0.70,9.62,1.42,0.01,-0.03,0.01
8:06:10 PM,0.24,9.70,1.64,0.06,0.03,0.01
8:06:10 PM,0.34,9.74,1.47,0.03,0.04,0.01
8:06:10 PM,0.48,9.62,1.35,0.00,-0.04,0.01
8:06:10 PM,0.54,9.65,1.52,-0.01,-0.05,0.01
8:06:10 PM,0.35,9.71,1.36,-0.01,-0.07,0.01
8:06:10 PM,0.49,9.61,1.28,0.02,-0.02,0.01
8:06:10 PM,0.62,9.67,1.33,-0.00,-0.07,0.01
8:06:11 PM,0.43,9.70,1.25,-0.03,-0.09,0.01
8:06:11 PM,0.26,9.75,1.35,-0.00,-0.05,0.01
8:06:11 PM,0.61,9.62,1.37,-0.00,-0.01,0.01
8:06:11 PM,0.74,9.69,1.61,0.03,-0.00,0.01
8:06:11 PM,0.41,9.69,1.52,0.01,-0.02,0.01
8:06:11 PM,0.54,9.68,1.45,0.02,-0.05,0.01
8:06:11 PM,0.46,9.59,1.46,0.01,0.04,0.01
8:06:11 PM,0.40,9.72,1.47,0.06,0.05,0.01
8:06:12 PM,0.64,9.58,1.47,0.00,-0.01,0.01
8:06:12 PM,0.68,9.56,1.51,0.01,-0.07,0.01
8:06:12 PM,0.75,9.58,1.57,-0.01,-0.04,0.01
8:06:12 PM,0.50,9.64,1.64,0.01,-0.03,0.01
8:06:12 PM,0.67,9.53,1.47,0.01,-0.03,0.01
8:06:12 PM,0.39,9.75,1.44,-0.01,-0.04,0.01
8:06:12 PM,0.33,9.67,1.51,0.01,-0.03,0.01
8:06:12 PM,0.72,9.61,1.41,0.03,-0.01,0.01
8:06:12 PM,1.01,9.49,1.51,0.02,-0.07,0.01
8:06:12 PM,0.75,9.61,1.58,-0.00,-0.01,0.01
8:06:12 PM,0.51,9.68,1.39,0.03,0.02,0.01
8:06:13 PM,0.24,9.73,1.35,0.01,-0.00,0.01
8:06:13 PM,0.43,9.67,1.47,0.04,0.05,0.01
8:06:13 PM,0.58,9.58,1.64,0.05,0.05,0.01
8:06:13 PM,0.67,9.63,1.41,0.03,0.01,0.01
8:06:13 PM,0.51,9.72,1.53,0.04,-0.01,0.01
8:06:13 PM,0.87,9.51,1.56,0.02,0.01,0.01
8:06:13 PM,0.82,9.50,1.51,0.03,-0.02,0.01
8:06:13 PM,0.70,9.49,1.50,0.00,-0.05,0.01
8:06:13 PM,0.64,9.59,1.44,-0.01,-0.05,0.01
8:06:14 PM,0.84,9.56,1.52,0.00,-0.06,0.01
8:06:14 PM,0.59,9.54,1.47,0.03,-0.01,0.01
8:06:14 PM,0.74,9.56,1.22,0.00,-0.04,0.01
8:06:14 PM,0.55,9.66,1.42,0.02,-0.02,0.01
8:06:14 PM,0.40,9.75,1.53,0.02,-0.03,0.01
8:06:14 PM,0.50,9.67,1.51,-0.01,0.00,0.01
8:06:14 PM,0.57,9.67,1.59,0.04,0.04,0.01
8:06:14 PM,0.59,9.62,1.47,0.03,0.00,0.01
8:06:14 PM,0.49,9.67,1.46,0.02,-0.02,0.01
8:06:15 PM,0.48,9.69,1.44,0.01,-0.04,0.01
8:06:15 PM,0.45,9.67,1.55,0.01,-0.00,0.01
8:06:15 PM,0.61,9.69,1.44,0.04,0.01,0.01
8:06:15 PM,0.58,9.69,1.50,0.02,0.01,0.01
8:06:15 PM,0.84,9.54,1.36,0.00,-0.02,0.01
8:06:15 PM,0.83,9.53,1.47,-0.00,-0.07,0.01
8:06:15 PM,0.66,9.65,1.70,-0.02,0.01,0.01
8:06:15 PM,0.71,9.62,1.41,0.02,0.01,0.01
8:06:15 PM,0.83,9.52,1.56,-0.02,-0.03,0.01
8:06:15 PM,0.85,9.61,1.60,0.01,-0.03,0.01
8:06:16 PM,0.47,9.69,1.41,0.01,-0.02,0.01
8:06:16 PM,0.34,9.68,1.18,-0.03,-0.05,0.01
8:06:16 PM,0.37,9.68,1.30,0.03,0.03,0.01
8:06:16 PM,0.54,9.63,1.41,0.01,0.02,0.01
8:06:16 PM,0.65,9.62,1.50,0.01,-0.08,0.01
8:06:16 PM,0.54,9.67,1.50,0.01,-0.01,0.01
8:06:16 PM,0.52,9.66,1.48,0.01,-0.05,0.01
8:06:16 PM,0.57,9.65,1.50,0.01,-0.04,0.01
8:06:16 PM,0.59,9.65,1.68,0.03,-0.00,0.01
8:06:16 PM,0.84,9.57,1.40,0.01,-0.03,0.01
8:06:17 PM,0.42,9.59,1.06,0.07,0.14,0.01
8:06:17 PM,0.69,9.59,1.43,0.04,0.04,0.01
8:06:17 PM,0.75,9.58,1.45,0.01,-0.04,0.01
8:06:17 PM,0.48,9.68,1.57,0.03,0.03,0.01
8:06:17 PM,0.85,9.50,1.50,-0.00,-0.00,0.01
8:06:17 PM,1.27,9.45,1.87,0.03,-0.00,0.01
8:06:17 PM,0.88,9.46,1.98,0.02,0.00,0.01
8:06:17 PM,0.62,9.68,1.48,0.02,-0.01,0.01
8:06:17 PM,0.68,9.63,1.65,0.06,0.05,0.01
8:06:18 PM,0.98,9.53,1.79,0.01,-0.04,0.01
8:06:18 PM,1.12,9.52,1.66,-0.00,-0.06,0.01
8:06:18 PM,0.97,9.58,1.58,-0.00,-0.07,0.01
8:06:18 PM,0.79,9.65,1.65,0.05,-0.01,0.01
8:06:18 PM,0.68,9.68,1.53,0.05,-0.01,0.01
8:06:18 PM,0.54,9.60,1.60,0.01,0.01,0.01
8:06:18 PM,0.25,9.64,1.62,0.01,-0.03,0.01
8:06:18 PM,0.37,9.65,1.34,0.01,-0.04,0.01
8:06:18 PM,0.24,9.68,1.46,0.02,-0.00,0.01
8:06:18 PM,0.52,9.42,2.24,0.05,-0.09,0.01
8:06:19 PM,0.20,9.76,1.49,-0.03,-0.04,0.01
8:06:19 PM,0.02,9.85,1.19,-0.01,-0.02,0.01
8:06:19 PM,0.30,9.77,1.10,-0.01,0.03,0.01
8:06:19 PM,0.42,9.81,1.35,0.02,0.02,0.01
8:06:19 PM,0.66,9.66,1.47,0.04,-0.01,0.01
8:06:19 PM,0.72,9.66,1.34,0.03,-0.04,0.01
8:06:19 PM,0.71,9.61,1.33,-0.04,-0.02,0.01
8:06:19 PM,0.64,9.67,1.32,-0.04,-0.02,0.01
8:06:19 PM,0.56,9.67,1.44,0.01,0.01,0.01
8:06:20 PM,0.58,9.67,1.38,-0.02,0.01,0.01
8:06:20 PM,0.77,9.57,1.26,-0.01,0.00,0.01
8:06:20 PM,0.83,9.63,1.30,0.01,-0.04,0.01
8:06:20 PM,0.74,9.59,1.40,-0.01,-0.04,0.01
8:06:20 PM,0.61,9.71,1.42,0.01,-0.00,0.01
8:06:20 PM,0.44,9.76,1.35,0.04,0.01,0.01
8:06:20 PM,0.37,9.86,1.37,0.04,-0.01,0.01
8:06:20 PM,0.74,9.69,1.21,-0.02,0.02,0.01
8:06:20 PM,0.85,9.65,1.19,-0.01,-0.02,0.01
8:06:21 PM,0.70,9.75,1.34,-0.02,-0.07,0.01
8:06:21 PM,0.66,9.67,1.35,-0.01,-0.04,0.01
8:06:21 PM,0.73,9.65,1.22,0.00,-0.01,0.01
8:06:21 PM,0.73,9.68,1.22,-0.00,-0.06,0.01
8:06:21 PM,0.72,9.66,1.23,0.01,-0.04,0.01
8:06:21 PM,0.70,9.67,1.23,-0.01,-0.01,0.01
8:06:21 PM,0.74,9.61,1.42,0.03,0.01,0.01
8:06:21 PM,0.73,9.66,1.47,0.02,0.02,0.01
8:06:21 PM,0.70,9.74,1.41,0.02,0.01,0.01
8:06:21 PM,0.68,9.77,1.43,0.03,0.01,0.01
8:06:22 PM,0.79,9.64,1.34,-0.01,-0.01,0.01
8:06:22 PM,0.80,9.59,1.30,0.01,-0.02,0.01
8:06:22 PM,0.80,9.64,1.18,-0.00,-0.05,0.01
8:06:22 PM,0.50,9.66,1.34,-0.00,-0.01,0.01
8:06:22 PM,0.70,9.70,1.17,-0.00,-0.04,0.01
8:06:22 PM,0.59,9.67,1.25,-0.01,-0.06,0.01
8:06:22 PM,0.69,9.66,1.25,-0.00,-0.02,0.01
8:06:22 PM,0.73,9.73,1.41,0.02,-0.02,0.01
8:06:22 PM,0.65,9.72,1.48,0.01,-0.04,0.01
8:06:23 PM,0.62,9.66,1.22,0.00,-0.03,0.01
8:06:23 PM,0.22,9.76,1.08,-0.01,0.13,0.01
8:06:23 PM,0.64,9.59,1.49,0.09,0.16,0.01
8:06:23 PM,0.68,9.57,1.59,0.07,0.06,0.01
8:06:23 PM,0.83,9.56,1.58,0.04,-0.01,0.01
8:06:23 PM,0.83,9.50,1.43,0.01,-0.05,0.01
8:06:23 PM,1.75,10.62,1.74,-0.46,-0.17,0.01
8:06:23 PM,0.77,9.60,1.46,0.11,0.05,0.01
8:06:23 PM,0.69,9.62,1.57,-0.06,-0.02,0.01
8:06:23 PM,0.42,9.73,0.96,-0.03,-0.01,0.01
8:06:24 PM,1.40,9.55,1.53,0.27,0.01,0.01
8:06:24 PM,0.52,9.66,1.75,0.05,-0.01,0.01
8:06:24 PM,1.19,9.80,1.17,0.33,0.03,0.01
8:06:24 PM,1.04,9.80,0.86,0.02,-0.08,0.01
8:06:24 PM,1.22,9.64,0.80,0.01,-0.01,0.01
8:06:24 PM,0.74,9.79,1.14,-0.01,-0.02,0.01
8:06:24 PM,1.12,9.65,0.96,-0.02,0.02,0.01
8:06:24 PM,1.20,9.58,0.86,-0.02,-0.08,0.01
8:06:24 PM,1.04,9.53,1.28,-0.00,-0.02,0.01
8:06:25 PM,0.62,9.94,1.23,0.04,0.01,0.01
8:06:25 PM,0.76,9.71,1.17,0.02,-0.03,0.01
8:06:25 PM,0.88,9.63,1.28,-0.02,0.01,0.01
8:06:25 PM,0.67,9.76,1.14,-0.02,-0.03,0.01
8:06:25 PM,0.70,9.75,1.10,0.01,-0.04,0.01
8:06:25 PM,0.93,9.67,0.97,0.00,0.01,0.01
8:06:25 PM,0.87,9.69,1.43,0.02,0.02,0.01
8:06:25 PM,0.93,9.65,1.09,-0.01,-0.02,0.01
8:06:25 PM,0.77,9.84,1.06,0.00,-0.05,0.01
8:06:25 PM,0.82,9.69,1.14,0.02,-0.04,0.01
8:06:26 PM,0.62,9.80,1.36,0.01,0.04,0.01
8:06:26 PM,0.80,9.70,1.14,0.01,-0.01,0.01
8:06:26 PM,0.97,9.58,1.03,0.03,-0.02,0.01
8:06:26 PM,0.73,9.71,1.35,0.01,-0.01,0.01
8:06:26 PM,0.86,9.56,1.48,-0.02,0.02,0.01
8:06:26 PM,0.81,9.73,1.35,0.01,-0.02,0.01
8:06:26 PM,0.91,9.66,1.14,-0.01,0.04,0.01
8:06:26 PM,0.81,9.79,1.27,0.05,0.00,0.01
8:06:26 PM,0.88,9.67,1.13,0.01,-0.07,0.01
8:06:27 PM,0.84,9.67,1.17,-0.01,0.02,0.01
8:06:27 PM,0.97,9.74,1.27,0.01,0.00,0.01
8:06:27 PM,0.76,9.69,1.18,0.00,0.00,0.01
8:06:27 PM,0.79,9.79,1.19,0.02,-0.04,0.01
8:06:27 PM,0.79,9.67,1.20,0.03,-0.04,0.01
8:06:27 PM,0.63,9.66,1.30,0.02,-0.03,0.01
8:06:27 PM,1.00,9.77,0.98,0.01,-0.00,0.01
8:06:27 PM,1.04,9.65,1.02,0.02,-0.05,0.01
8:06:27 PM,0.81,9.87,1.26,0.04,-0.01,0.01
8:06:27 PM,0.93,9.74,1.06,0.02,-0.03,0.01
8:06:28 PM,0.96,9.56,1.13,0.01,-0.00,0.01
8:06:28 PM,0.70,9.67,1.29,-0.01,0.00,0.01
8:06:28 PM,0.83,9.67,1.06,-0.08,0.00,0.01
8:06:28 PM,0.90,9.73,1.09,-0.05,-0.00,0.01
8:06:28 PM,1.06,9.52,1.03,-0.02,-0.07,0.01
8:06:28 PM,0.87,9.77,0.99,0.01,-0.03,0.01
8:06:28 PM,0.97,9.62,0.93,0.01,-0.05,0.01
8:06:28 PM,0.95,9.66,0.91,-0.00,-0.05,0.01
8:06:28 PM,0.59,9.73,1.53,0.02,-0.02,0.01
8:06:29 PM,0.65,9.76,1.53,0.03,0.00,0.01
8:06:29 PM,0.81,9.65,1.13,-0.02,-0.03,0.01
8:06:29 PM,0.65,9.70,1.10,-0.01,-0.01,0.01
8:06:29 PM,0.97,9.66,1.10,0.01,-0.04,0.01
8:06:29 PM,0.93,9.73,1.19,0.01,-0.06,0.01
8:06:29 PM,0.99,9.77,1.06,0.03,-0.04,0.01
8:06:29 PM,0.61,9.67,1.35,0.04,0.04,0.01
8:06:29 PM,0.68,9.65,1.28,0.05,0.05,0.01
8:06:29 PM,0.51,9.78,1.59,0.06,0.05,0.01
8:06:29 PM,1.12,9.67,1.01,0.03,-0.03,0.01
8:06:30 PM,1.06,9.55,0.94,0.03,-0.03,0.01
8:06:30 PM,0.67,9.73,1.44,0.02,-0.00,0.01
8:06:30 PM,0.70,9.87,1.48,0.06,-0.02,0.01
8:06:30 PM,0.73,9.67,1.28,-0.01,-0.04,0.01
8:06:30 PM,0.82,9.52,1.29,-0.00,-0.05,0.01
8:06:30 PM,0.90,9.67,0.96,0.00,-0.02,0.01
8:06:30 PM,0.79,9.69,1.18,0.04,-0.00,0.01
8:06:30 PM,0.91,9.59,1.06,0.02,-0.00,0.01
8:06:30 PM,0.86,9.73,1.20,0.01,-0.02,0.01
8:06:31 PM,0.86,9.71,1.22,-0.00,-0.02,0.01
8:06:31 PM,0.62,9.63,1.02,0.01,0.03,0.01
8:06:31 PM,0.96,9.55,1.04,0.02,-0.02,0.01
8:06:31 PM,0.92,9.67,1.14,0.00,-0.03,0.01
8:06:31 PM,0.83,9.66,1.24,0.02,0.02,0.01
8:06:31 PM,0.66,9.79,1.42,0.08,0.05,0.01
8:06:31 PM,0.69,9.85,1.17,0.03,-0.07,0.01
8:06:31 PM,0.81,9.72,1.03,0.04,0.01,0.01
8:06:31 PM,0.85,9.69,1.09,0.03,0.03,0.01
8:06:32 PM,1.07,9.63,0.97,0.03,-0.03,0.01
8:06:32 PM,0.83,9.65,0.97,0.00,-0.02,0.01
8:06:32 PM,0.85,9.73,1.31,-0.01,0.01,0.01
8:06:32 PM,0.92,9.68,1.37,-0.00,-0.05,0.01
8:06:32 PM,0.91,9.63,1.14,-0.01,-0.06,0.01
8:06:32 PM,0.72,9.64,1.26,0.01,-0.03,0.01
8:06:32 PM,0.78,9.59,1.23,0.01,-0.02,0.01
8:06:32 PM,0.69,9.65,1.38,-0.02,-0.01,0.01
8:06:32 PM,0.76,9.64,1.36,0.01,0.02,0.01
8:06:32 PM,0.83,9.75,1.24,0.05,-0.03,0.01
8:06:33 PM,0.82,9.61,1.18,0.01,0.02,0.01
8:06:33 PM,0.76,9.69,1.12,0.02,0.02,0.01
8:06:33 PM,0.97,9.66,1.14,0.01,-0.01,0.01
8:06:33 PM,0.86,9.62,1.10,-0.02,-0.01,0.01
8:06:33 PM,0.72,9.63,1.37,0.00,-0.01,0.01
8:06:33 PM,0.76,9.75,1.28,0.01,-0.03,0.01
8:06:33 PM,0.87,9.56,1.19,-0.01,-0.06,0.01
8:06:33 PM,0.88,9.58,1.21,-0.01,-0.04,0.01
8:06:33 PM,0.65,9.75,1.32,0.03,-0.02,0.01
8:06:34 PM,0.74,9.64,1.32,0.06,0.05,0.01
8:06:34 PM,0.87,9.60,1.36,0.02,0.05,0.01
8:06:34 PM,1.22,9.59,1.24,0.02,0.01,0.01
8:06:34 PM,1.15,9.64,1.26,-0.01,-0.00,0.01
8:06:34 PM,0.71,9.65,1.28,0.02,0.03,0.01
8:06:34 PM,0.78,9.57,1.40,-0.01,0.03,0.01
8:06:34 PM,0.62,9.79,1.60,0.03,-0.02,0.01
8:06:34 PM,0.59,9.74,1.37,0.05,0.03,0.01
8:06:34 PM,0.95,9.61,1.26,-0.01,-0.08,0.01
8:06:34 PM,0.91,9.61,1.36,-0.03,-0.06,0.01
8:06:35 PM,1.08,9.63,1.18,-0.02,-0.02,0.01
8:06:35 PM,0.44,9.90,1.13,0.02,-0.04,0.01
8:06:35 PM,1.25,9.52,1.23,0.01,-0.02,0.01
8:06:35 PM,0.98,9.60,1.37,0.01,-0.04,0.01
8:06:35 PM,0.86,9.57,1.28,-0.01,-0.09,0.01
8:06:35 PM,0.61,9.65,1.16,-0.01,-0.01,0.01
8:06:35 PM,0.97,9.64,1.13,0.00,0.00,0.01
8:06:35 PM,0.84,9.66,1.61,0.02,0.03,0.01
8:06:35 PM,0.97,9.67,1.22,-0.00,-0.08,0.01
8:06:36 PM,0.81,9.69,1.53,-0.05,-0.02,0.01
8:06:36 PM,0.87,9.63,1.37,-0.01,0.02,0.01
8:06:36 PM,1.01,9.56,1.13,-0.01,-0.07,0.01
8:06:36 PM,0.79,9.65,1.30,-0.02,-0.04,0.01
8:06:36 PM,0.85,9.67,1.09,0.01,-0.01,0.01
8:06:36 PM,0.85,9.61,1.33,0.02,0.01,0.01
8:06:36 PM,0.79,9.75,1.34,0.06,-0.01,0.01
8:06:36 PM,1.15,9.60,1.24,0.02,0.04,0.01
8:06:36 PM,0.77,9.68,1.27,0.02,-0.04,0.01
8:06:36 PM,0.88,9.67,1.33,0.02,-0.05,0.01
8:06:37 PM,0.84,9.73,1.40,0.01,-0.02,0.01
8:06:37 PM,1.11,9.60,1.52,0.06,0.00,0.01
8:06:37 PM,1.11,9.67,1.34,-0.00,0.00,0.01
8:06:37 PM,0.90,9.66,1.48,-0.01,-0.04,0.01
8:06:37 PM,0.63,9.77,1.36,-0.01,-0.05,0.01
8:06:37 PM,0.65,9.69,1.34,-0.04,0.00,0.01
8:06:37 PM,0.68,9.71,1.47,-0.02,0.02,0.01
8:06:37 PM,0.85,9.72,1.47,0.03,0.01,0.01
8:06:37 PM,1.12,9.47,1.32,-0.02,-0.03,0.01
8:06:38 PM,0.72,9.62,1.43,0.01,-0.03,0.01
8:06:38 PM,0.72,9.68,1.36,0.04,-0.00,0.01
8:06:38 PM,0.89,9.68,1.37,0.03,-0.01,0.01
8:06:38 PM,0.81,9.64,1.33,0.03,-0.01,0.01
8:06:38 PM,0.62,9.85,1.47,0.06,-0.01,0.01
8:06:38 PM,0.64,9.74,1.34,0.07,0.03,0.01
8:06:38 PM,0.74,9.72,1.32,0.05,-0.01,0.01
8:06:38 PM,0.86,9.70,1.40,0.04,-0.03,0.01
8:06:38 PM,0.71,9.68,1.24,-0.00,-0.02,0.01
8:06:38 PM,0.80,9.66,1.18,-0.04,-0.01,0.01
8:06:39 PM,0.80,9.63,1.46,0.01,-0.02,0.01
8:06:39 PM,1.06,9.57,1.28,-0.03,-0.00,0.01
8:06:39 PM,0.95,9.64,1.37,-0.02,-0.04,0.01
8:06:39 PM,0.85,9.57,1.32,-0.00,-0.05,0.01
8:06:39 PM,0.88,9.60,1.23,0.02,-0.05,0.01
8:06:39 PM,0.47,9.63,1.17,0.02,-0.03,0.01
8:06:39 PM,0.68,9.63,1.09,-0.00,0.01,0.01
8:06:39 PM,0.65,9.75,1.47,0.05,0.01,0.01
8:06:39 PM,0.62,9.66,1.49,0.04,0.02,0.01
8:06:40 PM,0.97,9.61,1.41,0.01,-0.03,0.01
8:06:40 PM,0.85,9.57,1.39,0.01,-0.04,0.01
8:06:40 PM,0.94,9.63,1.24,0.03,0.00,0.01
8:06:40 PM,1.11,9.50,1.38,0.04,-0.03,0.01
8:06:40 PM,0.99,9.62,1.45,-0.00,-0.02,0.01
8:06:40 PM,0.76,9.68,1.41,-0.01,-0.10,0.01
8:06:40 PM,0.79,9.62,1.53,0.02,0.02,0.01
8:06:40 PM,0.82,9.63,1.29,0.01,-0.08,0.01
8:06:40 PM,0.70,9.71,1.55,-0.01,0.03,0.01
8:06:40 PM,0.99,9.58,1.37,-0.01,-0.03,0.01
8:06:41 PM,0.92,9.56,1.30,-0.00,-0.05,0.01
8:06:41 PM,0.79,9.66,1.27,0.00,-0.02,0.01
8:06:41 PM,0.67,9.69,1.38,0.01,-0.01,0.01
8:06:41 PM,0.88,9.63,1.16,0.04,0.01,0.01
8:06:41 PM,0.65,9.64,1.33,-0.01,0.00,0.01
8:06:41 PM,0.75,9.60,1.44,0.01,-0.02,0.01
8:06:41 PM,0.86,9.61,1.42,-0.00,-0.00,0.01
8:06:41 PM,0.83,9.53,1.67,0.02,0.02,0.01
8:06:41 PM,0.90,9.65,1.37,0.01,-0.01,0.01
8:06:42 PM,0.99,9.56,1.22,-0.01,-0.04,0.01
8:06:42 PM,0.71,9.49,1.62,0.02,-0.07,0.01
8:06:42 PM,0.72,9.54,1.31,0.04,-0.08,0.01
8:06:42 PM,1.06,9.63,1.24,-0.03,-0.06,0.01
8:06:42 PM,-1.64,10.71,0.56,0.15,0.40,0.01
8:06:42 PM,0.83,9.65,1.38,0.02,0.02,0.01
8:06:42 PM,0.54,9.73,1.63,-0.02,-0.07,0.01
8:06:42 PM,0.22,9.84,1.19,0.06,0.12,0.01
8:06:42 PM,0.51,9.65,1.24,-0.01,-0.03,0.01
8:06:42 PM,0.30,9.72,1.41,0.00,-0.04,0.01
8:06:43 PM,0.65,9.76,1.23,0.00,-0.06,0.01
8:06:43 PM,0.46,9.68,1.29,0.00,-0.02,0.01
8:06:43 PM,0.36,9.76,1.31,0.01,-0.02,0.01
8:06:43 PM,0.41,9.69,1.30,0.02,-0.02,0.01
8:06:43 PM,0.50,9.69,1.43,-0.01,0.00,0.01
8:06:43 PM,0.63,9.63,1.18,-0.02,-0.01,0.01
8:06:43 PM,0.39,9.69,1.52,0.01,0.01,0.01
8:06:43 PM,0.85,9.50,1.20,-0.00,-0.05,0.01
8:06:43 PM,0.41,9.74,1.43,0.01,0.01,0.01
8:06:44 PM,0.33,9.73,1.26,-0.00,0.01,0.01
8:06:44 PM,0.64,9.67,1.11,-0.01,-0.04,0.01
8:06:44 PM,0.68,9.61,1.26,-0.00,0.00,0.01
8:06:44 PM,0.38,9.78,1.17,0.03,-0.01,0.01
8:06:44 PM,0.43,9.72,1.12,0.01,-0.04,0.01
8:06:44 PM,0.50,9.70,1.19,-0.02,-0.02,0.01
8:06:44 PM,0.47,9.63,1.47,0.01,-0.01,0.01
8:06:44 PM,0.47,9.66,1.21,0.02,-0.04,0.01
8:06:44 PM,0.32,9.70,1.50,-0.01,-0.04,0.01
8:06:45 PM,0.53,9.55,1.43,0.01,0.00,0.01
8:06:45 PM,0.24,9.78,1.59,0.03,-0.03,0.01
8:06:45 PM,0.28,9.72,1.47,0.00,-0.03,0.01
8:06:45 PM,0.28,9.62,1.42,0.02,0.01,0.01
8:06:45 PM,0.22,9.80,1.44,0.03,0.01,0.01
8:06:45 PM,0.36,9.69,1.39,-0.02,-0.05,0.01
8:06:45 PM,0.38,9.61,1.35,0.02,-0.03,0.01
8:06:45 PM,0.69,9.74,1.33,0.01,-0.18,0.01
8:06:45 PM,0.41,9.60,1.41,-0.03,-0.01,0.01
8:06:45 PM,0.24,9.70,1.43,-0.01,-0.05,0.01
8:06:46 PM,0.34,9.67,1.55,0.02,0.04,0.01
8:06:46 PM,0.67,9.54,1.56,-0.02,-0.01,0.01
8:06:46 PM,0.30,9.72,1.48,-0.00,0.00,0.01
8:06:46 PM,0.20,9.82,1.37,0.02,-0.00,0.01
8:06:46 PM,0.35,9.68,1.33,-0.02,-0.02,0.01
8:06:46 PM,0.38,9.67,1.31,-0.05,-0.03,0.01
8:06:46 PM,0.48,9.69,1.40,0.01,0.00,0.01
8:06:46 PM,0.15,9.75,1.43,-0.01,0.03,0.01
8:06:46 PM,0.34,9.77,1.30,-0.03,0.02,0.01
8:06:47 PM,0.58,9.60,1.17,0.00,-0.07,0.01
8:06:47 PM,0.16,9.83,1.31,0.07,0.01,0.01
8:06:47 PM,0.05,9.87,1.66,0.05,-0.04,0.01
8:06:47 PM,0.40,9.73,1.32,0.01,-0.00,0.01
8:06:47 PM,0.22,9.75,1.55,0.02,0.01,0.01
8:06:47 PM,0.31,9.73,1.53,-0.03,0.01,0.01
8:06:47 PM,0.52,9.68,1.41,-0.03,-0.01,0.01
8:06:47 PM,0.44,9.69,1.36,-0.04,-0.04,0.01
8:06:47 PM,0.23,9.88,1.38,0.03,-0.04,0.01
8:06:47 PM,0.40,9.68,1.47,-0.04,-0.00,0.01
8:06:48 PM,0.41,9.63,1.55,-0.03,0.00,0.01
8:06:48 PM,0.58,9.62,1.35,0.01,0.01,0.01
8:06:48 PM,0.50,9.69,1.33,0.01,0.01,0.01
8:06:48 PM,0.39,9.67,1.31,-0.04,-0.00,0.01
8:06:48 PM,0.35,9.78,1.30,0.03,-0.01,0.01
8:06:48 PM,0.58,9.76,1.32,0.01,-0.03,0.01
8:06:48 PM,0.62,9.62,1.28,-0.00,-0.02,0.01
8:06:48 PM,0.29,9.76,1.50,0.00,-0.02,0.01
8:06:48 PM,0.49,9.72,1.29,0.05,-0.06,0.01
8:06:49 PM,-0.06,9.86,1.62,0.06,-0.01,0.01
8:06:49 PM,0.56,9.69,1.16,0.02,-0.05,0.01
8:06:49 PM,0.51,9.57,1.37,0.02,0.00,0.01
8:06:49 PM,0.72,9.56,1.22,-0.00,-0.08,0.01
8:06:49 PM,0.37,9.70,1.50,0.04,-0.04,0.01
8:06:49 PM,0.04,9.81,1.66,0.08,-0.02,0.01
8:06:49 PM,0.09,9.80,1.50,0.06,0.02,0.01
8:06:49 PM,0.23,9.63,1.40,0.03,-0.05,0.01
8:06:49 PM,-0.59,9.76,1.83,0.05,-0.00,0.01
8:06:49 PM,0.16,9.78,1.41,0.00,0.04,0.01
8:06:50 PM,0.46,9.80,1.23,0.04,0.02,0.01
8:06:50 PM,0.41,9.62,1.55,0.04,0.01,0.01
8:06:50 PM,0.67,9.60,1.33,0.00,-0.03,0.01
8:06:50 PM,0.29,9.71,1.43,0.02,-0.05,0.01
8:06:50 PM,0.18,9.68,1.33,0.01,0.00,0.01
8:06:50 PM,0.24,9.67,1.65,0.02,0.02,0.01
8:06:50 PM,0.54,9.68,1.48,0.01,0.00,0.01
8:06:50 PM,0.21,9.73,1.58,-0.01,0.00,0.01
8:06:50 PM,0.36,9.73,1.47,-0.01,-0.00,0.01
8:06:51 PM,0.45,9.72,1.35,0.02,-0.02,0.01
8:06:51 PM,0.66,9.56,1.30,0.00,-0.05,0.01
8:06:51 PM,0.47,9.64,1.26,0.02,-0.05,0.01
8:06:51 PM,0.40,9.60,1.27,0.02,-0.04,0.01
8:06:51 PM,1.43,9.46,1.82,0.14,0.29,0.01
8:06:51 PM,0.65,9.69,1.25,-0.04,-0.00,0.01
8:06:51 PM,1.93,9.39,1.19,-0.01,-0.13,0.01
8:06:51 PM,0.87,9.54,1.08,-0.03,-0.10,0.01
8:06:51 PM,0.87,9.60,1.12,-0.01,-0.00,0.01
8:06:51 PM,0.78,9.63,1.32,0.01,-0.02,0.01
8:06:52 PM,0.73,9.61,1.22,0.02,-0.04,0.01
8:06:52 PM,0.85,9.60,1.28,-0.00,-0.01,0.01
8:06:52 PM,1.01,9.56,1.30,-0.01,-0.02,0.01
8:06:52 PM,0.78,9.63,1.41,0.01,-0.06,0.01
8:06:52 PM,0.85,9.63,1.46,0.01,-0.03,0.01
8:06:52 PM,0.72,9.60,1.39,0.04,-0.03,0.01
8:06:52 PM,0.76,9.73,1.19,-0.01,-0.01,0.01
8:06:52 PM,0.69,9.69,1.20,-0.02,0.01,0.01
8:06:52 PM,0.62,9.71,1.37,0.01,0.01,0.01
8:06:53 PM,0.92,9.66,1.21,0.02,0.02,0.01
8:06:53 PM,0.84,9.65,1.26,0.01,-0.03,0.01
8:06:53 PM,0.79,9.70,1.47,0.06,-0.05,0.01
8:06:53 PM,0.75,9.71,1.33,0.02,-0.03,0.01
8:06:53 PM,0.45,9.63,1.06,0.03,-0.05,0.01
8:06:53 PM,0.73,9.59,1.37,0.00,-0.07,0.01
8:06:53 PM,0.29,9.66,2.32,0.14,-0.04,0.01
8:06:53 PM,1.21,9.90,0.30,0.14,-0.17,0.01
8:06:53 PM,1.16,9.56,0.83,-0.02,-0.13,0.01
8:06:53 PM,1.05,9.66,0.88,-0.06,-0.04,0.01
8:06:54 PM,0.74,9.76,1.14,-0.05,-0.01,0.01
8:06:54 PM,0.44,9.83,1.53,0.04,0.06,0.01
8:06:54 PM,0.71,9.71,1.02,-0.04,-0.00,0.01
8:06:54 PM,0.57,9.66,1.42,0.03,0.01,0.01
8:06:54 PM,1.06,9.55,1.04,-0.03,-0.02,0.01
8:06:54 PM,0.87,9.68,1.02,0.06,-0.07,0.01
8:06:54 PM,0.29,9.84,1.20,0.06,0.00,0.01
8:06:54 PM,0.62,9.68,1.05,0.01,0.01,0.01
8:06:54 PM,1.02,9.66,0.92,-0.01,0.01,0.01
8:06:55 PM,0.74,9.82,1.04,0.01,0.03,0.01
8:06:55 PM,0.58,9.79,1.33,0.04,0.03,0.01
8:06:55 PM,0.78,9.73,1.08,0.01,-0.01,0.01
8:06:55 PM,0.73,9.74,1.37,0.03,0.07,0.01
8:06:55 PM,0.71,9.70,1.16,0.01,-0.05,0.01
8:06:55 PM,0.49,9.59,1.39,-0.02,0.01,0.01
8:06:55 PM,0.67,9.76,1.19,0.01,0.03,0.01
8:06:55 PM,0.79,9.68,1.23,0.00,0.01,0.01
8:06:55 PM,0.66,9.72,1.36,0.02,-0.01,0.01
8:06:56 PM,0.77,9.75,1.18,0.03,-0.03,0.01
8:06:56 PM,0.74,9.69,1.10,-0.02,0.01,0.01
8:06:56 PM,0.56,9.80,1.13,0.01,-0.02,0.01
8:06:56 PM,0.82,9.70,1.03,0.07,-0.01,0.01
8:06:56 PM,1.03,9.62,0.90,0.01,-0.04,0.01
8:06:56 PM,0.82,9.60,1.12,-0.00,-0.03,0.01
8:06:56 PM,0.87,9.71,1.04,0.01,-0.06,0.01
8:06:56 PM,0.76,9.67,1.31,0.05,-0.02,0.01
8:06:56 PM,0.80,9.62,1.26,-0.01,0.04,0.01
8:06:56 PM,0.73,9.67,1.15,0.02,-0.02,0.01
8:06:57 PM,0.61,9.71,1.19,0.01,-0.02,0.01
8:06:57 PM,0.83,9.60,1.18,0.02,-0.03,0.01
8:06:57 PM,0.81,9.84,1.10,-0.00,-0.08,0.01
8:06:57 PM,0.84,9.60,1.27,0.01,-0.00,0.01
8:06:57 PM,0.62,9.73,1.20,0.00,-0.01,0.01
8:06:57 PM,0.61,9.67,1.31,0.00,-0.03,0.01
8:06:57 PM,0.44,9.73,1.40,0.03,-0.03,0.01
8:06:57 PM,0.65,9.65,1.17,0.03,-0.03,0.01
8:06:57 PM,0.51,9.79,1.20,0.01,-0.07,0.01
8:06:58 PM,0.61,9.79,1.15,0.02,-0.04,0.01
8:06:58 PM,0.49,9.73,1.36,0.01,-0.01,0.01
8:06:58 PM,0.57,9.70,1.23,-0.01,0.01,0.01
8:06:58 PM,0.76,9.67,1.26,0.00,-0.01,0.01
8:06:58 PM,0.64,9.62,1.35,-0.00,-0.01,0.01
8:06:58 PM,0.78,9.68,1.16,0.05,-0.01,0.01
8:06:58 PM,0.75,9.68,1.14,-0.02,0.03,0.01
8:06:58 PM,0.67,9.69,1.11,0.01,0.02,0.01
8:06:58 PM,0.62,9.69,1.30,0.03,0.03,0.01
8:06:58 PM,0.61,9.72,1.11,0.03,-0.01,0.01
8:06:59 PM,0.50,9.75,1.24,0.03,0.00,0.01
8:06:59 PM,0.43,9.83,1.19,0.03,0.02,0.01
8:06:59 PM,0.70,9.73,1.08,0.01,-0.01,0.01
8:06:59 PM,0.68,9.66,1.18,0.02,-0.01,0.01
8:06:59 PM,0.78,9.71,1.02,0.01,-0.02,0.01
8:06:59 PM,0.76,9.69,1.12,-0.02,-0.04,0.01
8:06:59 PM,0.54,9.67,1.30,0.02,-0.01,0.01
8:06:59 PM,0.48,9.92,1.25,0.07,0.00,0.01
8:06:59 PM,0.63,9.81,1.08,0.08,0.00,0.01
8:07:00 PM,0.59,9.63,1.17,0.01,-0.07,0.01
8:07:00 PM,0.49,9.74,1.35,0.06,0.03,0.01
8:07:00 PM,0.78,9.63,1.18,0.04,-0.01,0.01
8:07:00 PM,0.61,9.69,1.17,0.00,-0.03,0.01
8:07:00 PM,0.82,9.69,0.96,0.04,-0.01,0.01
8:07:00 PM,0.60,9.68,1.33,0.02,-0.01,0.01
8:07:00 PM,0.64,9.73,1.08,0.05,-0.05,0.01
8:07:00 PM,0.87,9.69,1.02,0.02,-0.03,0.01
8:07:00 PM,0.76,9.73,1.10,0.03,-0.05,0.01
8:07:00 PM,0.50,9.84,1.00,0.00,-0.07,0.01
8:07:01 PM,0.61,9.71,1.21,0.02,-0.03,0.01
8:07:01 PM,0.80,9.56,1.34,0.02,0.01,0.01
8:07:01 PM,0.83,9.70,1.09,-0.01,0.03,0.01
8:07:01 PM,0.76,9.71,1.07,0.02,0.03,0.01
8:07:01 PM,0.70,9.73,0.89,0.00,-0.00,0.01
8:07:01 PM,0.72,9.69,0.94,-0.02,-0.02,0.01
8:07:01 PM,0.68,9.71,1.11,-0.05,0.00,0.01
8:07:01 PM,1.01,9.69,1.11,-0.01,-0.04,0.01
8:07:01 PM,0.94,9.58,1.05,-0.01,-0.08,0.01
8:07:02 PM,0.88,9.67,0.95,-0.01,-0.02,0.01
8:07:02 PM,0.62,9.71,1.24,0.01,-0.01,0.01
8:07:02 PM,0.72,9.63,1.11,-0.01,-0.05,0.01
8:07:02 PM,0.78,9.65,1.04,0.00,-0.03,0.01
8:07:02 PM,0.68,9.72,1.15,0.02,-0.02,0.01
8:07:02 PM,0.67,9.64,1.22,0.01,-0.02,0.01
8:07:02 PM,0.88,9.66,0.94,-0.02,-0.01,0.01
8:07:02 PM,0.70,9.65,1.19,-0.00,0.00,0.01
8:07:02 PM,0.84,9.72,1.02,0.01,-0.05,0.01
8:07:03 PM,0.47,9.82,1.20,0.01,-0.02,0.01
8:07:03 PM,0.58,9.75,1.10,0.06,-0.02,0.01
8:07:03 PM,0.92,9.67,0.93,0.01,-0.04,0.01
8:07:03 PM,0.82,9.67,0.89,-0.02,-0.06,0.01
8:07:03 PM,0.75,9.68,1.21,0.00,-0.01,0.01
8:07:03 PM,0.67,9.70,1.15,-0.00,-0.02,0.01
8:07:03 PM,0.60,9.75,1.30,0.00,-0.01,0.01
8:07:03 PM,0.61,9.79,1.27,0.00,-0.00,0.01
8:07:03 PM,0.64,9.74,1.21,0.01,-0.03,0.01
8:07:03 PM,0.62,9.71,1.33,-0.01,-0.04,0.01
8:07:04 PM,0.67,9.67,1.10,0.03,-0.04,0.01
8:07:04 PM,0.81,9.69,1.06,0.05,-0.01,0.01
8:07:04 PM,0.70,9.75,1.00,0.06,0.10,0.01
8:07:04 PM,1.18,9.57,1.17,0.08,-0.00,0.01
8:07:04 PM,1.11,9.61,1.22,0.03,0.09,0.01
8:07:04 PM,1.29,9.48,1.39,-0.01,0.01,0.01
8:07:04 PM,0.93,9.64,1.28,0.02,-0.01,0.01
8:07:04 PM,0.66,9.78,1.37,0.03,0.03,0.01
8:07:04 PM,0.96,9.64,1.29,0.05,0.04,0.01
8:07:04 PM,0.97,9.64,1.23,0.02,-0.04,0.01
8:07:05 PM,0.75,9.74,1.47,0.03,0.02,0.01
8:07:05 PM,0.90,9.66,1.57,0.02,-0.07,0.01
8:07:05 PM,0.94,9.64,1.15,-0.02,-0.10,0.01
8:07:05 PM,0.89,9.66,0.96,-0.01,-0.08,0.01
8:07:05 PM,0.78,9.68,0.93,-0.01,-0.06,0.01
8:07:05 PM,0.61,9.80,1.28,0.04,0.04,0.01
8:07:05 PM,0.90,9.66,1.08,-0.00,-0.04,0.01
8:07:05 PM,1.00,9.61,1.24,-0.03,-0.04,0.01
8:07:05 PM,0.68,9.68,1.18,-0.05,-0.09,0.01
8:07:06 PM,0.59,9.79,1.16,-0.03,-0.04,0.01
8:07:06 PM,0.57,9.68,1.22,-0.02,-0.04,0.01
8:07:06 PM,0.73,9.70,1.37,0.04,0.01,0.01
8:07:06 PM,0.92,9.57,1.38,-0.00,-0.05,0.01
8:07:06 PM,0.86,9.66,1.37,-0.00,-0.06,0.01
8:07:06 PM,0.61,9.70,1.24,-0.00,-0.06,0.01
8:07:06 PM,0.79,9.58,1.12,-0.01,-0.06,0.01
8:07:06 PM,0.69,9.64,1.15,0.02,0.04,0.01
8:07:06 PM,1.12,9.60,1.20,0.05,-0.00,0.01
8:07:06 PM,1.12,9.61,1.09,0.00,-0.01,0.01
8:07:07 PM,1.08,9.59,1.10,0.00,-0.06,0.01
8:07:07 PM,0.97,9.68,1.09,0.02,0.00,0.01
8:07:07 PM,0.55,9.75,1.34,0.05,-0.00,0.01
8:07:07 PM,0.63,9.80,1.22,0.08,0.11,0.01
8:07:07 PM,0.65,9.73,1.08,0.05,-0.02,0.01
8:07:07 PM,0.74,9.66,1.04,0.03,0.05,0.01
8:07:07 PM,0.67,9.66,1.16,0.01,-0.00,0.01
8:07:07 PM,0.89,9.63,1.48,-0.01,0.03,0.01
8:07:07 PM,0.70,9.60,1.52,0.00,-0.03,0.01
8:07:08 PM,0.75,9.67,1.23,-0.05,-0.03,0.01
8:07:08 PM,0.68,9.67,1.45,0.05,0.02,0.01
8:07:08 PM,0.82,9.77,1.40,0.02,-0.06,0.01
8:07:08 PM,0.85,9.63,1.42,0.05,-0.01,0.01
8:07:08 PM,0.85,9.65,1.28,0.01,0.01,0.01
8:07:08 PM,0.65,9.84,1.36,0.06,-0.02,0.01
8:07:08 PM,0.78,9.73,1.15,0.02,-0.04,0.01
8:07:09 PM,0.62,9.67,1.61,0.07,0.03,0.01
8:07:09 PM,0.97,9.67,1.44,-0.01,-0.02,0.01
8:07:09 PM,0.98,9.66,1.33,0.01,-0.09,0.01
8:07:09 PM,1.12,9.56,1.12,-0.00,-0.03,0.01
8:07:09 PM,0.91,9.66,1.15,0.03,-0.02,0.01
8:07:09 PM,0.97,9.73,1.27,0.02,0.02,0.01
8:07:09 PM,0.69,9.75,1.53,0.03,-0.00,0.01
8:07:09 PM,0.95,9.66,1.32,0.02,-0.01,0.01
8:07:09 PM,0.96,9.60,1.47,0.03,0.01,0.01
8:07:09 PM,0.80,9.72,1.38,0.06,-0.03,0.01
8:07:09 PM,0.92,9.70,1.07,0.00,-0.02,0.01
8:07:09 PM,0.86,9.65,1.34,0.02,-0.07,0.01
8:07:10 PM,0.89,9.64,1.30,-0.00,-0.03,0.01
8:07:10 PM,1.11,9.62,1.18,-0.03,-0.07,0.01
8:07:10 PM,0.98,9.67,1.15,0.03,-0.05,0.01
8:07:10 PM,0.72,9.72,1.18,0.01,-0.04,0.01
8:07:10 PM,0.68,9.76,1.46,0.06,0.01,0.01
8:07:10 PM,0.93,9.65,1.35,0.01,0.07,0.01
8:07:10 PM,1.01,9.64,1.05,-0.01,-0.07,0.01
8:07:10 PM,0.96,9.63,1.17,-0.02,-0.03,0.01
8:07:10 PM,0.72,9.65,1.42,0.01,-0.02,0.01
8:07:11 PM,0.82,9.74,1.02,-0.01,-0.03,0.01
8:07:11 PM,1.02,9.60,1.34,0.00,-0.06,0.01
8:07:11 PM,0.99,9.63,1.32,-0.04,-0.11,0.01
8:07:11 PM,0.86,9.66,1.38,-0.01,-0.06,0.01
8:07:11 PM,0.80,9.69,1.40,-0.02,-0.01,0.01
8:07:11 PM,0.75,9.72,1.24,-0.03,-0.04,0.01
8:07:11 PM,0.77,9.73,1.29,-0.01,-0.02,0.01
8:07:11 PM,0.88,9.59,1.39,0.01,0.02,0.01
8:07:11 PM,1.01,9.60,1.51,-0.02,0.03,0.01
8:07:11 PM,1.23,9.54,1.40,-0.01,-0.07,0.01
8:07:12 PM,0.75,9.68,1.50,0.01,-0.02,0.01
8:07:12 PM,0.64,9.58,1.37,-0.02,-0.03,0.01
8:07:12 PM,0.71,9.68,1.11,0.01,0.02,0.01
8:07:12 PM,0.79,9.69,1.23,0.01,-0.00,0.01
8:07:12 PM,0.95,9.63,1.12,-0.03,-0.08,0.01
8:07:12 PM,0.62,9.67,1.23,-0.05,-0.09,0.01
8:07:12 PM,0.54,9.71,1.23,0.03,-0.06,0.01
8:07:12 PM,0.66,9.68,1.24,0.06,-0.00,0.01
8:07:12 PM,0.69,9.67,1.28,0.03,-0.01,0.01
8:07:13 PM,0.74,9.75,1.10,0.01,0.00,0.01
8:07:13 PM,0.86,9.69,1.19,0.03,-0.06,0.01
8:07:13 PM,0.98,9.63,1.30,-0.01,-0.08,0.01
8:07:13 PM,0.61,9.70,1.34,-0.02,-0.04,0.01
8:07:13 PM,0.79,9.69,1.15,0.01,-0.08,0.01
8:07:13 PM,0.84,9.62,1.19,-0.00,-0.06,0.01
8:07:13 PM,0.62,9.57,1.38,-0.02,-0.03,0.01
8:07:13 PM,0.61,9.69,1.12,-0.03,-0.02,0.01
8:07:13 PM,0.19,9.94,1.26,0.01,-0.05,0.01
8:07:13 PM,0.48,9.81,1.12,-0.00,0.01,0.01
8:07:14 PM,0.41,9.82,1.16,0.03,-0.02,0.01
8:07:14 PM,0.49,9.83,1.22,0.03,0.02,0.01
8:07:14 PM,0.72,9.72,1.47,0.05,0.03,0.01
8:07:14 PM,1.32,9.58,1.39,0.00,0.00,0.01
8:07:14 PM,1.41,9.48,1.43,-0.00,-0.02,0.01
8:07:14 PM,0.88,9.78,1.39,0.01,-0.07,0.01
8:07:14 PM,1.03,9.56,1.25,-0.05,-0.09,0.01
8:07:14 PM,0.92,9.56,1.16,-0.04,-0.10,0.01
8:07:14 PM,0.69,9.71,1.20,-0.03,-0.09,0.01
8:07:15 PM,0.66,9.62,1.32,0.00,-0.10,0.01
8:07:15 PM,0.40,9.67,1.13,-0.01,-0.10,0.01
8:07:15 PM,0.06,9.84,1.06,0.01,-0.04,0.01
8:07:15 PM,0.42,9.78,0.98,0.02,0.01,0.01
8:07:15 PM,0.45,9.67,1.22,0.00,0.02,0.01
8:07:15 PM,0.61,9.71,1.33,-0.01,0.02,0.01
8:07:15 PM,0.54,9.73,1.31,0.04,0.04,0.01
8:07:15 PM,0.63,9.67,1.32,-0.01,0.06,0.01
8:07:15 PM,0.76,9.78,1.11,0.03,0.05,0.01
8:07:15 PM,0.71,9.72,1.37,0.04,-0.02,0.01
8:07:16 PM,0.83,9.64,1.11,0.03,-0.06,0.01
8:07:16 PM,0.73,9.66,1.27,0.06,0.02,0.01
8:07:16 PM,1.09,9.48,1.19,0.01,-0.04,0.01
8:07:16 PM,1.02,9.56,1.30,0.01,-0.05,0.01
8:07:16 PM,1.14,9.58,1.32,-0.02,-0.06,0.01
8:07:16 PM,0.74,9.77,1.20,-0.00,-0.05,0.01
8:07:16 PM,0.70,9.70,0.96,0.01,0.01,0.01
8:07:16 PM,0.88,9.62,1.08,0.01,0.01,0.01
8:07:16 PM,0.84,9.66,1.01,-0.00,-0.04,0.01
8:07:17 PM,0.83,9.63,1.13,0.00,-0.03,0.01
8:07:17 PM,0.67,9.75,1.21,0.00,-0.01,0.01
8:07:17 PM,0.76,9.69,0.99,-0.01,-0.04,0.01
8:07:17 PM,0.66,9.68,1.03,0.03,0.01,0.01
8:07:17 PM,0.85,9.71,1.18,-0.00,0.03,0.01
8:07:17 PM,1.11,9.67,1.26,-0.01,-0.07,0.01
8:07:17 PM,0.51,9.90,1.37,0.06,-0.01,0.01
8:07:17 PM,0.85,9.65,1.00,0.02,0.01,0.01
8:07:17 PM,1.08,9.61,1.20,0.01,0.03,0.01
8:07:17 PM,0.85,9.62,1.21,-0.00,0.03,0.01
8:07:18 PM,0.83,9.61,1.30,0.01,-0.05,0.01
8:07:18 PM,0.72,9.74,1.19,0.03,0.03,0.01
8:07:18 PM,0.63,9.82,1.18,0.01,-0.01,0.01
8:07:18 PM,0.60,9.68,1.30,0.01,-0.02,0.01
8:07:18 PM,0.54,9.81,1.26,0.02,-0.01,0.01
8:07:18 PM,0.78,9.69,1.19,-0.01,-0.05,0.01
8:07:18 PM,0.57,9.76,1.28,0.03,-0.03,0.01
8:07:18 PM,0.57,9.84,1.15,0.02,-0.03,0.01
8:07:18 PM,0.82,9.70,1.24,0.01,0.01,0.01
8:07:19 PM,0.66,9.79,1.19,0.02,-0.00,0.01
8:07:19 PM,0.81,9.70,1.31,0.02,-0.06,0.01
8:07:19 PM,0.62,9.74,1.22,0.03,-0.02,0.01
8:07:19 PM,0.56,9.75,1.35,0.04,-0.01,0.01
8:07:19 PM,0.86,9.61,1.18,0.02,-0.07,0.01
8:07:19 PM,0.70,9.69,1.21,0.01,-0.00,0.01
8:07:19 PM,0.71,9.69,1.20,-0.01,-0.04,0.01
8:07:19 PM,0.79,9.73,1.32,0.01,0.01,0.01
8:07:19 PM,0.99,9.66,1.19,-0.01,-0.01,0.01
8:07:20 PM,0.97,9.58,1.31,-0.00,-0.02,0.01
8:07:20 PM,0.78,9.72,1.34,0.01,-0.00,0.01
8:07:20 PM,0.64,9.71,1.33,-0.02,-0.08,0.01
8:07:20 PM,0.70,9.76,1.15,-0.00,-0.05,0.01
8:07:20 PM,0.85,9.64,1.08,0.02,-0.04,0.01
8:07:20 PM,0.52,9.68,1.41,0.02,-0.04,0.01
8:07:20 PM,0.83,9.61,1.18,0.01,0.01,0.01
8:07:20 PM,0.68,9.82,1.32,-0.00,0.00,0.01
8:07:20 PM,0.64,9.70,1.27,-0.04,0.00,0.01
8:07:20 PM,0.67,9.68,1.14,-0.01,-0.01,0.01
8:07:21 PM,0.47,9.82,1.35,0.01,0.04,0.01
8:07:21 PM,0.70,9.76,1.35,0.01,-0.02,0.01
8:07:21 PM,0.78,9.70,1.43,0.01,-0.02,0.01
8:07:21 PM,0.78,9.67,1.30,-0.01,-0.04,0.01
8:07:21 PM,0.83,9.71,1.23,-0.04,-0.02,0.01
8:07:21 PM,0.61,9.75,1.23,-0.00,0.01,0.01
8:07:21 PM,0.75,9.70,1.15,0.01,0.03,0.01
8:07:21 PM,1.00,9.68,0.88,0.06,0.02,0.01
8:07:21 PM,0.84,9.61,1.11,0.03,-0.02,0.01
8:07:22 PM,0.87,9.58,1.00,-0.01,-0.00,0.01
8:07:22 PM,0.55,9.75,1.15,0.00,0.02,0.01
8:07:22 PM,0.47,9.72,1.10,0.03,-0.02,0.01
8:07:22 PM,1.01,9.62,1.08,0.05,0.02,0.01
8:07:22 PM,1.12,9.57,1.17,0.00,0.00,0.01
8:07:22 PM,0.58,9.69,1.30,0.04,-0.08,0.01
8:07:22 PM,0.55,9.66,0.97,0.05,0.01,0.01
8:07:22 PM,0.58,9.79,1.21,0.03,0.01,0.01
8:07:22 PM,0.81,9.61,1.05,0.01,-0.05,0.01
8:07:22 PM,0.87,9.60,1.16,0.02,-0.01,0.01
8:07:23 PM,0.72,9.67,1.21,0.01,-0.05,0.01
8:07:23 PM,1.07,9.57,1.46,-0.01,-0.05,0.01
8:07:23 PM,0.96,9.63,1.51,-0.02,-0.05,0.01
8:07:23 PM,0.74,9.71,1.23,0.01,-0.07,0.01
8:07:23 PM,0.82,9.69,1.18,-0.03,-0.03,0.01
8:07:23 PM,0.82,9.67,1.34,0.01,-0.01,0.01
8:07:23 PM,0.65,9.66,1.41,0.01,0.00,0.01
8:07:23 PM,0.57,9.71,1.49,0.03,-0.03,0.01
8:07:23 PM,0.71,9.76,1.30,0.02,-0.02,0.01
8:07:24 PM,0.53,9.75,1.35,0.03,0.03,0.01
8:07:24 PM,0.73,9.70,1.18,0.03,0.02,0.01
8:07:24 PM,1.06,9.61,1.20,0.00,-0.03,0.01
8:07:24 PM,1.16,9.55,1.20,0.02,-0.03,0.01
8:07:24 PM,0.70,9.71,1.41,-0.02,0.02,0.01
8:07:24 PM,0.81,9.72,1.25,0.01,-0.02,0.01
8:07:24 PM,0.71,9.68,1.40,0.01,0.00,0.01
8:07:24 PM,0.31,9.70,1.42,0.01,0.02,0.01
8:07:24 PM,0.57,9.70,1.17,-0.00,0.04,0.01
8:07:24 PM,0.83,9.62,1.07,-0.00,0.00,0.01
8:07:25 PM,0.61,9.75,1.39,0.03,0.04,0.01
8:07:25 PM,0.92,9.61,1.49,-0.01,0.02,0.01
8:07:25 PM,0.73,9.64,1.34,-0.04,-0.02,0.01
8:07:25 PM,0.69,9.66,1.04,-0.01,-0.00,0.01
8:07:25 PM,0.53,9.64,1.14,0.05,-0.01,0.01
8:07:25 PM,0.24,9.73,1.58,0.05,0.07,0.01
8:07:25 PM,0.57,9.68,1.27,0.02,0.03,0.01
8:07:25 PM,0.65,9.77,1.73,0.07,-0.06,0.01
8:07:25 PM,0.11,9.83,1.32,-0.02,-0.09,0.01
8:07:26 PM,0.44,9.69,1.26,0.04,0.12,0.01
8:07:26 PM,0.56,9.69,1.07,-0.03,0.01,0.01
8:07:26 PM,0.21,9.77,1.28,-0.02,0.03,0.01
8:07:26 PM,-0.35,9.90,0.86,-0.04,0.02,0.01
8:07:26 PM,0.09,9.78,0.90,0.00,0.04,0.01
8:07:26 PM,0.63,9.65,1.07,0.01,0.03,0.01
8:07:26 PM,0.41,9.85,1.10,-0.00,-0.01,0.01
8:07:26 PM,0.72,9.63,1.33,0.03,0.02,0.01
8:07:26 PM,0.52,9.69,1.02,0.01,-0.01,0.01
8:07:26 PM,0.33,9.77,1.18,0.02,-0.00,0.01
8:07:27 PM,0.91,9.61,1.09,0.03,0.05,0.01
8:07:27 PM,1.17,9.55,1.25,0.03,-0.02,0.01
8:07:27 PM,0.91,9.61,1.37,0.02,-0.00,0.01
8:07:27 PM,0.97,9.66,1.12,0.03,-0.01,0.01
8:07:27 PM,0.82,9.55,1.49,0.01,0.01,0.01
8:07:27 PM,0.86,9.61,1.29,0.04,-0.02,0.01
8:07:27 PM,0.76,9.63,1.22,0.03,-0.07,0.01
8:07:27 PM,0.74,9.72,1.32,0.02,-0.03,0.01
8:07:27 PM,0.84,9.65,1.30,-0.01,0.02,0.01
8:07:28 PM,0.66,9.66,1.46,-0.02,-0.00,0.01
8:07:28 PM,0.57,9.73,1.35,0.01,-0.01,0.01
8:07:28 PM,0.61,9.72,1.22,0.00,-0.03,0.01
8:07:28 PM,0.67,9.67,1.29,0.00,-0.01,0.01
8:07:28 PM,0.64,9.74,1.32,0.03,0.02,0.01
8:07:28 PM,0.63,9.73,1.13,0.02,0.00,0.01
8:07:28 PM,0.36,9.77,1.28,0.05,-0.02,0.01
8:07:28 PM,0.73,9.71,1.11,0.01,-0.01,0.01
8:07:28 PM,0.59,9.81,1.23,0.03,0.01,0.01
8:07:28 PM,0.77,9.65,1.29,0.02,0.04,0.01
8:07:29 PM,0.67,9.70,1.24,0.03,0.04,0.01
8:07:29 PM,0.83,9.64,1.20,-0.00,0.00,0.01
8:07:29 PM,0.69,9.60,1.63,0.04,0.03,0.01
8:07:29 PM,0.69,9.76,1.34,0.01,-0.01,0.01
8:07:29 PM,0.84,9.62,1.15,0.01,-0.05,0.01
8:07:29 PM,0.90,9.65,1.13,-0.00,-0.01,0.01
8:07:29 PM,0.58,9.74,1.34,0.03,0.05,0.01
8:07:29 PM,0.72,9.76,1.42,0.03,0.03,0.01
8:07:29 PM,0.83,9.63,1.36,0.01,-0.03,0.01
8:07:30 PM,0.78,9.67,1.21,0.02,-0.02,0.01
8:07:30 PM,0.70,9.62,1.34,0.00,-0.03,0.01
8:07:30 PM,0.78,9.59,1.22,0.02,-0.01,0.01
8:07:30 PM,0.54,9.77,1.21,0.01,0.02,0.01
8:07:30 PM,0.86,9.67,1.21,-0.00,0.02,0.01
8:07:30 PM,1.07,9.56,1.24,-0.02,-0.05,0.01
8:07:30 PM,0.68,9.62,1.40,0.01,-0.06,0.01
8:07:30 PM,0.94,9.60,1.31,-0.01,-0.02,0.01
8:07:30 PM,0.87,9.73,1.27,0.00,-0.02,0.01
8:07:31 PM,1.28,9.46,1.22,-0.00,-0.07,0.01
8:07:31 PM,1.18,9.54,1.43,-0.05,-0.02,0.01
8:07:31 PM,0.83,9.59,1.44,-0.01,-0.05,0.01
8:07:31 PM,0.43,9.67,1.78,0.03,-0.00,0.01
8:07:31 PM,0.48,9.69,1.33,0.01,0.01,0.01
8:07:31 PM,0.60,9.71,1.30,0.04,-0.01,0.01
8:07:31 PM,0.46,9.70,1.68,0.07,0.04,0.01
8:07:31 PM,0.66,9.76,1.60,0.04,0.05,0.01
8:07:31 PM,0.51,9.81,1.62,0.03,-0.04,0.01
8:07:31 PM,0.68,9.67,1.27,-0.02,0.01,0.01
8:07:32 PM,0.85,9.63,1.28,0.01,0.03,0.01
8:07:32 PM,1.18,9.50,1.19,-0.01,-0.04,0.01
8:07:32 PM,0.68,9.73,1.48,0.00,-0.04,0.01
8:07:32 PM,0.58,9.70,1.34,-0.01,-0.00,0.01
8:07:32 PM,0.96,9.59,1.02,-0.02,-0.03,0.01
8:07:32 PM,0.74,9.69,1.30,-0.06,-0.02,0.01
8:07:32 PM,0.67,9.62,1.47,-0.01,0.03,0.01
8:07:32 PM,0.79,9.61,1.26,0.02,-0.04,0.01
8:07:32 PM,0.70,9.63,1.27,0.01,-0.03,0.01
8:07:33 PM,0.56,9.67,1.28,0.02,0.01,0.01
8:07:33 PM,0.57,9.70,1.15,-0.00,0.01,0.01
8:07:33 PM,0.57,9.80,1.09,0.02,-0.02,0.01
8:07:33 PM,0.56,9.77,1.25,0.02,0.01,0.01
8:07:33 PM,0.49,9.71,1.30,0.07,-0.02,0.01
8:07:33 PM,0.52,9.65,1.31,-0.01,-0.18,0.01
8:07:33 PM,0.58,9.72,1.23,0.01,-0.08,0.01
8:07:33 PM,0.47,9.81,1.13,0.02,-0.03,0.01
8:07:33 PM,0.33,9.71,1.27,0.02,0.03,0.01
8:07:33 PM,0.32,9.82,1.16,0.03,0.05,0.01
8:07:34 PM,0.13,9.87,1.47,0.05,0.04,0.01
8:07:34 PM,0.36,9.85,1.12,0.05,0.01,0.01
8:07:34 PM,0.39,9.74,1.44,0.03,0.01,0.01
8:07:34 PM,0.75,9.74,1.53,0.07,0.10,0.01
