Timestamp,Accel X,Accel Y,Accel Z,Gyro X,Gyro Y,Gyro Z
8:00:15 PM,0.96,-0.97,8.60,-0.01,-0.11,0.01
8:00:15 PM,0.72,-0.82,8.37,0.01,-0.02,0.01
8:00:15 PM,0.62,-0.83,8.40,0.03,-0.09,0.01
8:00:15 PM,0.42,-0.93,8.72,0.03,-0.01,0.01
8:00:15 PM,0.32,-0.95,8.68,-0.03,0.04,0.01
8:00:15 PM,0.51,-0.77,8.43,0.02,-0.07,0.01
8:00:15 PM,0.44,-0.75,8.24,0.00,-0.03,0.01
8:00:16 PM,0.51,-0.86,8.54,-0.05,-0.01,0.01
8:00:16 PM,0.77,-0.81,8.31,0.02,-0.00,0.01
8:00:16 PM,0.69,-0.78,8.26,0.04,-0.06,0.01
8:00:16 PM,0.63,-0.89,8.51,0.02,-0.12,0.01
8:00:16 PM,0.50,-0.89,8.59,-0.03,0.05,0.01
8:00:16 PM,0.60,-0.93,8.54,-0.02,-0.07,0.01
8:00:16 PM,0.49,-0.86,8.53,0.03,0.02,0.01
8:00:16 PM,0.30,-0.92,8.62,0.04,0.08,0.01
8:00:16 PM,1.04,-0.90,8.62,-0.02,-0.14,0.01
8:00:17 PM,0.35,-0.88,8.46,-0.10,-0.17,0.01
8:00:17 PM,0.32,-1.11,8.78,0.01,0.09,0.01
8:00:17 PM,0.93,-0.86,8.40,-0.13,-0.01,0.01
8:00:17 PM,0.60,-1.22,8.41,-0.05,0.01,0.01
8:00:17 PM,0.54,-1.41,9.03,-0.07,0.00,0.01
8:00:17 PM,0.12,-0.97,8.58,0.01,-0.06,0.01
8:00:17 PM,0.41,-1.01,8.58,0.01,0.09,0.01
8:00:17 PM,0.16,-1.16,8.53,0.02,-0.08,0.01
8:00:17 PM,0.44,-1.01,8.66,0.13,-0.03,0.01
8:00:17 PM,0.54,-1.03,9.11,0.05,0.01,0.01
8:00:18 PM,0.26,-0.89,8.40,0.08,-0.01,0.01
8:00:18 PM,0.27,-0.89,8.54,0.04,-0.05,0.01
8:00:18 PM,0.20,-0.79,8.32,-0.02,-0.05,0.01
8:00:18 PM,0.66,-0.89,8.63,-0.01,-0.03,0.01
8:00:18 PM,-0.03,-0.90,8.70,-0.01,-0.00,0.01
8:00:18 PM,0.05,-1.02,8.91,-0.00,-0.07,0.01
8:00:18 PM,0.09,-0.72,8.39,0.03,0.00,0.01
8:00:18 PM,0.35,-0.78,8.37,0.02,-0.06,0.01
8:00:18 PM,0.15,-0.76,8.50,-0.02,-0.03,0.01
8:00:19 PM,0.28,-0.81,8.61,0.02,-0.03,0.01
8:00:19 PM,0.05,-1.09,8.60,0.01,0.06,0.01
8:00:19 PM,-0.36,-1.16,8.68,0.17,0.12,0.01
8:00:19 PM,-0.31,-0.64,8.22,0.03,0.06,0.01
8:00:19 PM,0.46,-1.52,9.08,-0.10,-0.16,0.01
8:00:19 PM,0.78,-1.33,9.09,0.00,-0.02,0.01
8:00:19 PM,1.69,-1.57,8.90,-0.06,-0.30,0.01
8:00:19 PM,0.88,-1.13,8.57,0.14,-0.05,0.01
8:00:19 PM,0.59,-0.88,8.35,-0.19,-0.34,0.01
8:00:19 PM,0.23,-1.19,8.52,-0.11,0.07,0.01
8:00:20 PM,0.65,-0.96,8.30,0.10,-0.04,0.01
8:00:20 PM,1.02,-1.13,8.52,0.06,0.01,0.01
8:00:20 PM,0.81,-1.15,8.56,0.05,0.17,0.01
8:00:20 PM,0.20,-0.96,8.20,0.05,0.23,0.01
8:00:20 PM,-0.05,-0.78,8.18,0.07,0.06,0.01
8:00:20 PM,0.19,-1.07,8.35,0.04,0.09,0.01
8:00:20 PM,0.58,-1.07,8.32,0.06,0.26,0.01
8:00:20 PM,0.63,-1.02,8.38,-0.08,-0.19,0.01
8:00:20 PM,0.18,-0.98,8.55,0.06,0.09,0.01
8:00:21 PM,0.47,-1.01,8.38,0.09,0.07,0.01
8:00:21 PM,0.31,-1.10,8.74,0.02,-0.07,0.01
8:00:21 PM,0.08,-1.07,8.62,0.03,-0.02,0.01
8:00:21 PM,0.44,-0.91,8.43,0.00,0.00,0.01
8:00:21 PM,0.13,-1.03,8.59,0.01,-0.08,0.01
8:00:21 PM,0.11,-1.04,8.61,0.02,-0.02,0.01
8:00:21 PM,0.10,-0.85,8.36,0.01,-0.01,0.01
8:00:21 PM,0.42,-0.96,8.56,0.03,-0.12,0.01
8:00:21 PM,0.49,-0.73,8.11,0.02,-0.03,0.01
8:00:21 PM,0.33,-0.90,8.39,-0.02,0.01,0.01
8:00:22 PM,-0.04,-0.98,8.36,-0.04,-0.00,0.01
8:00:22 PM,0.21,-1.07,8.63,-0.03,-0.05,0.01
8:00:22 PM,0.22,-1.09,8.67,-0.01,-0.13,0.01
8:00:22 PM,0.25,-1.17,8.76,0.00,-0.08,0.01
8:00:22 PM,0.54,-1.13,8.70,-0.01,0.03,0.01
8:00:22 PM,0.33,-1.04,8.44,0.00,0.05,0.01
8:00:22 PM,0.37,-0.98,8.44,-0.01,-0.01,0.01
8:00:22 PM,0.48,-1.08,8.52,-0.01,-0.04,0.01
8:00:22 PM,0.75,-1.28,8.93,-0.04,-0.13,0.01
8:00:23 PM,0.76,-1.13,8.69,0.03,0.02,0.01
8:00:23 PM,0.20,-0.89,8.32,0.03,-0.01,0.01
8:00:23 PM,0.05,-1.15,8.92,0.03,-0.15,0.01
8:00:23 PM,0.29,-1.24,8.83,0.03,-0.04,0.01
8:00:23 PM,0.85,-1.12,8.51,0.01,-0.07,0.01
8:00:23 PM,0.81,-1.06,8.55,0.07,-0.02,0.01
8:00:23 PM,0.47,-0.97,8.40,0.06,0.06,0.01
8:00:23 PM,0.49,-1.07,8.76,0.00,-0.01,0.01
8:00:23 PM,0.40,-0.97,8.54,0.01,0.05,0.01
8:00:23 PM,0.61,-1.02,8.41,-0.05,-0.03,0.01
8:00:24 PM,0.06,-1.02,8.59,0.00,0.06,0.01
8:00:24 PM,0.66,-1.10,8.63,0.02,-0.01,0.01
8:00:24 PM,0.42,-1.04,8.56,0.03,0.02,0.01
8:00:24 PM,0.24,-1.11,8.67,-0.00,-0.06,0.01
8:00:24 PM,0.49,-1.11,8.54,-0.00,-0.01,0.01
8:00:24 PM,0.48,-1.14,8.63,-0.00,0.03,0.01
8:00:24 PM,0.22,-0.97,8.41,0.02,0.02,0.01
8:00:24 PM,0.60,-1.13,8.68,-0.00,-0.04,0.01
8:00:24 PM,0.35,-1.07,8.50,0.01,0.01,0.01
8:00:25 PM,0.18,-1.04,8.53,0.01,-0.04,0.01
8:00:25 PM,0.35,-1.02,8.51,0.06,0.02,0.01
8:00:25 PM,0.38,-1.03,8.43,0.03,0.02,0.01
8:00:25 PM,0.64,-1.04,8.42,0.05,-0.01,0.01
8:00:25 PM,0.36,-0.91,8.26,0.03,-0.00,0.01
8:00:25 PM,0.30,-0.99,8.35,0.01,-0.01,0.01
8:00:25 PM,0.80,-1.08,8.54,0.01,-0.01,0.01
8:00:25 PM,0.41,-1.14,8.55,0.00,-0.01,0.01
8:00:25 PM,0.35,-1.11,8.66,0.02,0.01,0.01
8:00:26 PM,0.51,-1.17,8.76,0.01,-0.07,0.01
8:00:26 PM,0.26,-1.11,8.76,0.05,0.04,0.01
8:00:26 PM,0.41,-1.04,8.49,0.06,0.03,0.01
8:00:26 PM,0.54,-1.02,8.40,-0.00,-0.01,0.01
8:00:26 PM,0.68,-0.97,8.41,-0.01,-0.02,0.01
8:00:26 PM,0.53,-1.11,8.67,0.00,0.04,0.01
8:00:26 PM,0.47,-1.07,8.77,-0.09,-0.09,0.01
8:00:26 PM,0.72,-0.93,8.30,-0.01,-0.00,0.01
8:00:26 PM,0.34,-1.02,8.64,-0.03,0.06,0.01
8:00:26 PM,0.32,-0.92,8.42,0.04,-0.07,0.01
8:00:27 PM,0.02,-0.99,8.66,0.04,0.06,0.01
8:00:27 PM,0.01,-0.88,8.44,0.00,-0.01,0.01
8:00:27 PM,0.47,-1.03,8.62,0.00,-0.07,0.01
8:00:27 PM,0.51,-1.02,8.64,0.03,-0.01,0.01
8:00:27 PM,0.37,-1.03,8.61,-0.00,-0.00,0.01
8:00:27 PM,0.38,-0.97,8.58,0.02,0.00,0.01
8:00:27 PM,0.43,-0.96,8.54,0.03,0.08,0.01
8:00:27 PM,0.43,-0.93,8.40,0.01,0.04,0.01
8:00:27 PM,0.34,-0.90,8.53,0.04,0.03,0.01
8:00:28 PM,0.29,-0.92,8.38,0.03,0.04,0.01
8:00:28 PM,0.13,-0.85,8.30,-0.01,-0.09,0.01
8:00:28 PM,0.31,-1.04,8.65,-0.06,-0.24,0.01
8:00:28 PM,0.61,-0.94,8.44,-0.00,-0.08,0.01
8:00:28 PM,0.24,-0.99,8.54,-0.03,-0.06,0.01
8:00:28 PM,0.36,-0.98,8.56,-0.03,-0.02,0.01
8:00:28 PM,0.11,-0.90,8.29,-0.03,0.03,0.01
8:00:28 PM,0.45,-1.19,8.89,-0.03,-0.10,0.01
8:00:28 PM,0.52,-1.01,8.56,-0.04,-0.05,0.01
8:00:28 PM,0.56,-1.14,8.68,0.01,-0.09,0.01
8:00:29 PM,0.39,-1.14,8.66,0.00,-0.01,0.01
8:00:29 PM,0.55,-0.98,8.51,-0.01,0.01,0.01
8:00:29 PM,0.23,-1.07,8.56,0.01,-0.01,0.01
8:00:29 PM,-0.14,-1.30,9.04,-0.04,0.05,0.01
8:00:29 PM,0.52,-1.10,8.66,-0.05,0.01,0.01
8:00:29 PM,0.61,-1.11,8.53,0.01,0.04,0.01
8:00:29 PM,0.44,-1.09,8.49,-0.01,0.06,0.01
8:00:29 PM,0.62,-1.15,8.47,0.04,-0.17,0.01
8:00:29 PM,0.52,-1.11,8.76,0.07,0.04,0.01
8:00:30 PM,0.46,-0.89,8.43,0.06,0.10,0.01
8:00:30 PM,0.74,-0.87,8.56,0.11,0.30,0.01
8:00:30 PM,0.53,-0.94,8.44,0.15,0.12,0.01
8:00:30 PM,0.82,-0.86,8.49,0.08,-0.00,0.01
8:00:30 PM,0.51,-0.87,8.42,0.05,0.08,0.01
8:00:30 PM,-0.14,-0.84,8.39,0.04,0.03,0.01
8:00:30 PM,0.19,-1.02,8.88,0.07,-0.03,0.01
8:00:30 PM,0.41,-1.10,8.80,-0.05,0.04,0.01
8:00:30 PM,0.68,-1.05,8.68,-0.06,-0.01,0.01
8:00:30 PM,1.03,-1.20,8.84,-0.01,-0.10,0.01
8:00:31 PM,0.60,-1.06,8.66,0.02,-0.02,0.01
8:00:31 PM,0.09,-0.89,8.39,-0.02,-0.13,0.01
8:00:31 PM,0.40,-1.04,8.66,0.03,-0.07,0.01
8:00:31 PM,0.06,-0.79,8.41,0.05,-0.04,0.01
8:00:31 PM,-0.05,-0.87,8.61,-0.01,0.02,0.01
8:00:31 PM,-0.04,-0.84,8.50,-0.01,-0.02,0.01
8:00:31 PM,0.47,-0.86,8.41,-0.00,-0.05,0.01
8:00:31 PM,0.61,-0.87,8.35,0.02,-0.07,0.01
8:00:31 PM,0.38,-0.87,8.46,-0.01,-0.02,0.01
8:00:32 PM,0.37,-0.90,8.49,0.01,0.02,0.01
8:00:32 PM,0.15,-0.92,8.54,0.04,-0.01,0.01
8:00:32 PM,0.23,-0.90,8.52,0.06,-0.01,0.01
8:00:32 PM,0.37,-0.85,8.50,0.02,-0.06,0.01
8:00:32 PM,0.09,-0.81,8.42,0.01,0.01,0.01
8:00:32 PM,0.11,-0.92,8.71,-0.02,-0.01,0.01
8:00:32 PM,0.30,-0.99,8.61,-0.02,-0.18,0.01
8:00:32 PM,0.23,-0.99,8.69,0.00,0.01,0.01
8:00:32 PM,0.27,-0.97,8.61,-0.04,-0.05,0.01
8:00:32 PM,0.38,-1.00,8.62,-0.01,0.04,0.01
8:00:33 PM,0.50,-1.02,8.70,0.02,-0.03,0.01
8:00:33 PM,0.30,-0.98,8.59,0.03,-0.06,0.01
8:00:33 PM,0.27,-0.85,8.39,0.03,0.01,0.01
8:00:33 PM,0.19,-0.92,8.64,0.01,-0.03,0.01
8:00:33 PM,0.22,-1.04,8.71,-0.02,-0.04,0.01
8:00:33 PM,0.32,-0.81,8.33,0.02,0.09,0.01
8:00:33 PM,0.27,-0.91,8.65,0.04,0.06,0.01
8:00:33 PM,0.28,-0.90,8.44,-0.04,-0.20,0.01
8:00:33 PM,0.76,-1.06,8.72,0.03,-0.02,0.01
8:00:34 PM,0.10,-0.90,8.62,0.02,-0.04,0.01
8:00:34 PM,0.22,-0.83,8.34,0.06,-0.04,0.01
8:00:34 PM,0.33,-0.84,8.57,0.02,-0.00,0.01
8:00:34 PM,0.23,-0.85,8.48,-0.00,0.03,0.01
8:00:34 PM,0.42,-0.87,8.40,-0.01,-0.02,0.01
8:00:34 PM,0.50,-0.82,8.36,0.02,0.04,0.01
8:00:34 PM,0.18,-0.86,8.50,0.04,-0.11,0.01
8:00:34 PM,0.43,-0.98,8.74,-0.01,-0.02,0.01
8:00:34 PM,0.20,-0.90,8.53,0.02,-0.03,0.01
8:00:34 PM,0.33,-0.95,8.65,-0.01,0.01,0.01
8:00:35 PM,0.32,-0.81,8.39,0.04,-0.02,0.01
8:00:35 PM,0.12,-0.89,8.63,0.04,0.03,0.01
8:00:35 PM,-0.06,-0.82,8.49,0.07,0.04,0.01
8:00:35 PM,0.56,-0.81,8.40,0.04,-0.01,0.01
8:00:35 PM,0.15,-0.76,8.43,-0.03,-0.10,0.01
8:00:35 PM,0.42,-0.91,8.59,0.05,0.02,0.01
8:00:35 PM,0.16,-0.74,8.37,0.04,-0.04,0.01
8:00:35 PM,0.60,-0.88,8.58,-0.00,-0.07,0.01
8:00:35 PM,0.20,-0.99,8.71,0.04,-0.02,0.01
8:00:36 PM,0.49,-1.05,8.77,0.01,0.04,0.01
8:00:36 PM,0.28,-0.90,8.55,0.00,0.09,0.01
8:00:36 PM,0.27,-0.90,8.54,0.04,-0.05,0.01
8:00:36 PM,0.31,-0.99,8.80,0.03,-0.06,0.01
8:00:36 PM,0.58,-0.88,8.54,-0.01,-0.06,0.01
8:00:36 PM,0.35,-0.93,8.62,0.02,-0.01,0.01
8:00:36 PM,0.60,-0.97,8.58,0.02,-0.00,0.01
8:00:36 PM,0.21,-0.90,8.56,0.07,0.03,0.01
8:00:36 PM,0.15,-0.96,8.77,0.02,-0.02,0.01
8:00:36 PM,0.23,-0.99,8.81,0.01,0.08,0.01
8:00:37 PM,0.26,-0.89,8.57,-0.01,-0.03,0.01
8:00:37 PM,0.24,-0.97,8.56,-0.02,-0.03,0.01
8:00:37 PM,0.45,-0.98,8.61,0.00,-0.03,0.01
8:00:37 PM,0.58,-0.84,8.42,-0.01,-0.04,0.01
8:00:37 PM,0.29,-0.91,8.59,0.01,-0.06,0.01
8:00:37 PM,0.25,-0.91,8.59,0.04,-0.02,0.01
8:00:37 PM,0.04,-0.90,8.73,0.00,0.00,0.01
8:00:37 PM,0.31,-0.80,8.44,0.01,0.05,0.01
8:00:37 PM,0.39,-0.96,8.71,0.03,-0.05,0.01
8:00:38 PM,0.31,-0.97,8.67,0.02,0.04,0.01
8:00:38 PM,0.36,-0.89,8.60,0.02,0.05,0.01
8:00:38 PM,0.09,-0.88,8.57,0.06,0.01,0.01
8:00:38 PM,0.21,-0.88,8.64,-0.01,-0.01,0.01
8:00:38 PM,0.18,-0.81,8.47,0.03,-0.03,0.01
8:00:38 PM,0.42,-0.88,8.57,0.01,-0.04,0.01
8:00:38 PM,0.31,-0.94,8.63,-0.01,-0.12,0.01
8:00:38 PM,0.21,-0.85,8.66,0.00,-0.00,0.01
8:00:38 PM,0.20,-0.81,8.40,0.01,-0.08,0.01
8:00:39 PM,0.53,-0.93,8.64,0.02,-0.01,0.01
8:00:39 PM,0.27,-0.79,8.31,-0.00,0.06,0.01
8:00:39 PM,0.45,-0.78,8.52,-0.00,0.02,0.01
8:00:39 PM,0.02,-0.78,8.40,0.03,0.12,0.01
8:00:39 PM,0.17,-0.88,8.63,0.02,-0.02,0.01
8:00:39 PM,0.01,-0.68,8.29,-0.01,-0.02,0.01
8:00:39 PM,0.50,-0.88,8.49,0.00,-0.10,0.01
8:00:39 PM,0.47,-0.97,8.54,-0.00,-0.09,0.01
8:00:39 PM,0.52,-0.96,8.71,0.02,0.04,0.01
8:00:39 PM,0.43,-0.97,8.61,-0.01,-0.08,0.01
8:00:40 PM,0.88,-1.09,8.83,0.01,-0.11,0.01
8:00:40 PM,0.45,-1.04,8.90,0.02,0.00,0.01
8:00:40 PM,0.20,-0.85,8.65,0.03,0.08,0.01
8:00:40 PM,0.46,-0.72,8.37,0.06,-0.12,0.01
8:00:40 PM,0.14,-0.89,8.68,0.04,-0.00,0.01
8:00:40 PM,-0.08,-0.79,8.62,0.01,0.15,0.01
8:00:40 PM,0.19,-0.90,8.60,-0.04,-0.06,0.01
8:00:40 PM,0.26,-0.86,8.60,0.01,0.00,0.01
8:00:40 PM,0.39,-1.00,8.60,-0.03,-0.06,0.01
8:00:41 PM,0.40,-0.95,8.67,-0.03,-0.05,0.01
8:00:41 PM,0.39,-0.87,8.51,-0.00,0.01,0.01
8:00:41 PM,0.55,-0.99,8.69,0.01,-0.02,0.01
8:00:41 PM,0.16,-0.90,8.62,0.02,0.08,0.01
8:00:41 PM,0.63,-0.99,8.60,-0.05,0.00,0.01
8:00:41 PM,-0.02,-1.00,8.84,0.00,0.04,0.01
8:00:41 PM,0.65,-0.89,8.38,-0.00,-0.16,0.01
8:00:41 PM,0.49,-1.02,8.66,0.09,0.00,0.01
8:00:41 PM,0.41,-0.89,8.37,0.00,0.00,0.01
8:00:41 PM,0.44,-0.89,8.47,0.02,-0.07,0.01
8:00:42 PM,0.45,-0.81,8.37,0.03,0.04,0.01
8:00:42 PM,-0.05,-0.83,8.48,0.05,-0.04,0.01
8:00:42 PM,0.56,-1.11,8.85,-0.05,-0.13,0.01
8:00:42 PM,0.60,-1.05,8.60,-0.01,0.02,0.01
8:00:42 PM,0.44,-0.96,8.56,0.01,0.01,0.01
8:00:42 PM,0.40,-0.81,8.37,-0.00,-0.00,0.01
8:00:42 PM,0.43,-0.82,8.44,0.01,-0.08,0.01
8:00:42 PM,0.41,-0.95,8.43,-0.03,-0.11,0.01
8:00:42 PM,0.57,-0.92,8.54,-0.02,-0.09,0.01
8:00:43 PM,0.32,-0.94,8.44,-0.01,-0.08,0.01
8:00:43 PM,0.46,-0.94,8.65,0.03,0.05,0.01
8:00:43 PM,0.31,-0.89,8.51,0.02,-0.03,0.01
8:00:43 PM,0.30,-1.02,8.56,-0.01,-0.03,0.01
8:00:43 PM,0.22,-0.87,8.55,0.05,0.10,0.01
8:00:43 PM,0.00,-0.96,8.64,0.03,0.02,0.01
8:00:43 PM,0.56,-0.94,8.57,0.03,-0.02,0.01
8:00:43 PM,0.26,-0.85,8.51,0.03,-0.02,0.01
8:00:43 PM,0.38,-0.96,8.61,0.04,-0.04,0.01
8:00:43 PM,0.32,-0.86,8.49,0.06,0.05,0.01
8:00:44 PM,0.41,-0.91,8.49,0.04,-0.06,0.01
8:00:44 PM,0.38,-1.02,8.65,0.07,0.09,0.01
8:00:44 PM,0.19,-0.85,8.41,0.03,-0.06,0.01
8:00:44 PM,0.52,-0.97,8.54,-0.02,-0.11,0.01
8:00:44 PM,0.71,-1.06,8.71,-0.00,-0.03,0.01
8:00:44 PM,0.20,-0.90,8.46,0.01,0.05,0.01
8:00:44 PM,0.58,-0.99,8.67,-0.01,0.01,0.01
8:00:44 PM,0.42,-0.92,8.48,-0.00,0.02,0.01
8:00:44 PM,0.30,-0.95,8.60,0.00,0.02,0.01
8:00:45 PM,0.12,-0.89,8.54,0.00,0.01,0.01
8:00:45 PM,0.42,-0.97,8.58,0.02,-0.10,0.01
8:00:45 PM,0.39,-0.85,8.58,0.04,0.05,0.01
8:00:45 PM,0.08,-0.79,8.47,0.03,-0.03,0.01
8:00:45 PM,0.17,-0.88,8.57,0.01,-0.02,0.01
8:00:45 PM,0.24,-0.86,8.60,0.00,0.05,0.01
8:00:45 PM,-0.01,-0.90,8.66,-0.01,-0.07,0.01
8:00:45 PM,0.31,-0.92,8.63,-0.02,-0.05,0.01
8:00:45 PM,0.36,-0.78,8.36,-0.02,-0.06,0.01
8:00:45 PM,0.31,-1.07,8.76,0.03,0.02,0.01
8:00:46 PM,0.16,-0.98,8.71,0.01,0.01,0.01
8:00:46 PM,0.16,-1.02,8.65,-0.00,0.06,0.01
8:00:46 PM,0.34,-0.97,8.57,0.02,-0.00,0.01
8:00:46 PM,0.32,-1.00,8.69,0.01,-0.05,0.01
8:00:46 PM,0.36,-0.92,8.60,-0.03,-0.06,0.01
8:00:46 PM,0.16,-0.89,8.51,0.03,0.04,0.01
8:00:46 PM,0.38,-0.96,8.54,0.02,-0.03,0.01
8:00:46 PM,0.28,-0.88,8.43,0.01,-0.06,0.01
8:00:47 PM,0.40,-0.91,8.57,0.04,-0.02,0.01
8:00:47 PM,0.59,-0.95,8.62,-0.02,-0.08,0.01
8:00:47 PM,0.44,-0.91,8.53,-0.01,-0.06,0.01
8:00:47 PM,0.39,-1.10,8.64,0.00,-0.02,0.01
8:00:47 PM,0.54,-0.91,8.60,0.03,0.02,0.01
8:00:47 PM,0.64,-0.96,8.52,-0.01,-0.01,0.01
8:00:47 PM,0.66,-1.02,8.61,0.04,0.05,0.01
8:00:47 PM,0.05,-0.91,8.67,-0.01,-0.02,0.01
8:00:47 PM,0.61,-1.05,8.71,-0.02,0.01,0.01
8:00:47 PM,0.37,-0.87,8.47,0.03,0.03,0.01
8:00:48 PM,0.74,-0.97,8.53,0.04,-0.02,0.01
8:00:48 PM,0.36,-0.85,8.42,0.01,0.03,0.01
8:00:48 PM,0.46,-0.92,8.53,0.01,0.00,0.01
8:00:48 PM,0.37,-0.94,8.65,-0.01,-0.06,0.01
8:00:48 PM,0.21,-0.87,8.63,0.02,0.05,0.01
8:00:48 PM,0.40,-1.00,8.75,-0.01,-0.01,0.01
8:00:48 PM,0.26,-0.84,8.47,-0.02,0.05,0.01
8:00:48 PM,0.47,-0.96,8.65,-0.03,-0.05,0.01
8:00:48 PM,0.22,-0.95,8.60,-0.02,0.01,0.01
8:00:48 PM,0.38,-0.90,8.62,-0.01,-0.07,0.01
8:00:49 PM,0.31,-1.00,8.70,0.01,0.03,0.01
8:00:49 PM,0.40,-0.95,8.69,0.03,0.01,0.01
8:00:49 PM,0.19,-0.84,8.46,-0.03,-0.01,0.01
8:00:49 PM,0.63,-0.87,8.40,-0.02,-0.06,0.01
8:00:49 PM,0.25,-0.87,8.55,0.05,-0.08,0.01
8:00:49 PM,0.34,-1.00,8.77,0.01,-0.10,0.01
8:00:49 PM,0.17,-0.96,8.75,-0.00,0.04,0.01
8:00:49 PM,0.49,-0.88,8.55,0.02,0.02,0.01
8:00:49 PM,0.37,-0.86,8.47,0.04,-0.06,0.01
8:00:49 PM,0.50,-0.94,8.73,0.04,0.03,0.01
8:00:50 PM,0.26,-0.91,8.61,-0.02,0.02,0.01
8:00:50 PM,0.40,-0.83,8.50,-0.00,0.03,0.01
8:00:50 PM,0.54,-0.81,8.42,0.01,0.00,0.01
8:00:50 PM,0.26,-0.78,8.44,-0.00,0.03,0.01
8:00:50 PM,0.62,-1.29,10.27,0.18,0.37,0.01
8:00:50 PM,-0.76,0.16,8.20,0.29,0.59,0.01
8:00:50 PM,-0.27,-0.45,8.57,0.14,0.26,0.01
8:00:50 PM,0.31,-0.77,8.35,0.04,-0.03,0.01
8:00:50 PM,0.42,-0.79,8.45,0.04,-0.06,0.01
8:00:51 PM,0.36,-0.89,8.87,0.06,0.05,0.01
8:00:51 PM,0.11,-0.68,8.50,0.05,0.08,0.01
8:00:51 PM,0.26,-0.85,8.73,0.06,0.01,0.01
8:00:51 PM,0.28,-0.87,8.72,0.06,0.10,0.01
8:00:51 PM,0.35,-1.03,8.94,-0.02,-0.04,0.01
8:00:51 PM,0.39,-0.89,8.58,-0.01,0.03,0.01
8:00:51 PM,0.51,-0.94,8.76,-0.05,-0.14,0.01
8:00:51 PM,0.19,-0.95,8.74,-0.07,-0.12,0.01
8:00:51 PM,-0.07,-0.63,8.44,0.02,0.04,0.01
8:00:52 PM,0.46,-0.77,8.64,-0.01,-0.15,0.01
8:00:52 PM,0.50,-0.72,8.42,0.05,-0.07,0.01
8:00:52 PM,0.58,-0.84,8.85,0.05,0.06,0.01
8:00:52 PM,0.18,-0.86,8.68,0.04,0.06,0.01
8:00:52 PM,0.34,-0.76,8.58,0.00,-0.01,0.01
8:00:52 PM,0.38,-0.71,8.42,0.03,0.10,0.01
8:00:52 PM,0.22,-0.70,8.64,-0.00,-0.11,0.01
8:00:52 PM,0.22,-0.79,8.64,-0.01,-0.00,0.01
8:00:52 PM,0.34,-0.74,8.53,0.00,0.01,0.01
8:00:52 PM,0.18,-0.80,8.66,0.00,0.02,0.01
8:00:53 PM,0.21,-0.85,8.74,0.01,-0.04,0.01
8:00:53 PM,0.09,-0.71,8.50,0.02,-0.00,0.01
8:00:53 PM,0.48,-0.71,8.49,0.02,-0.07,0.01
8:00:53 PM,0.09,-0.74,8.61,0.00,-0.03,0.01
8:00:53 PM,0.36,-0.82,8.59,0.03,0.03,0.01
8:00:53 PM,0.25,-0.75,8.40,0.02,-0.03,0.01
8:00:53 PM,0.30,-0.85,8.72,0.02,-0.09,0.01
8:00:53 PM,-0.09,-0.70,8.70,0.02,-0.05,0.01
8:00:53 PM,-0.05,-0.76,8.81,0.02,0.06,0.01
8:00:54 PM,0.00,-0.68,8.59,-0.00,-0.06,0.01
8:00:54 PM,0.30,-0.91,8.77,0.00,0.00,0.01
8:00:54 PM,0.24,-0.79,8.57,-0.00,-0.05,0.01
8:00:54 PM,0.51,-0.74,8.57,0.02,-0.07,0.01
8:00:54 PM,0.48,-0.78,8.58,0.03,0.01,0.01
8:00:54 PM,-0.10,-0.66,8.43,0.00,-0.04,0.01
8:00:54 PM,0.23,-0.71,8.55,-0.00,-0.10,0.01
8:00:54 PM,0.10,-0.72,8.67,0.03,0.01,0.01
8:00:54 PM,0.42,-0.68,8.64,-0.01,0.04,0.01
8:00:54 PM,0.24,-0.75,8.53,0.02,-0.02,0.01
8:00:55 PM,0.57,-0.74,8.73,0.00,0.02,0.01
8:00:55 PM,0.22,-0.79,8.60,-0.01,0.02,0.01
8:00:55 PM,0.32,-0.54,8.54,0.00,-0.14,0.01
8:00:55 PM,0.52,-0.82,8.67,-0.00,-0.14,0.01
8:00:55 PM,0.17,-0.74,8.80,-0.01,-0.03,0.01
8:00:55 PM,0.22,-0.91,8.80,-0.00,0.01,0.01
8:00:55 PM,0.53,-0.84,8.73,0.07,0.12,0.01
8:00:55 PM,0.31,-0.74,8.57,0.03,0.03,0.01
8:00:55 PM,0.47,-0.82,8.60,0.00,-0.01,0.01
8:00:56 PM,0.34,-0.79,8.58,0.02,0.09,0.01
8:00:56 PM,0.11,-0.73,8.59,0.02,-0.04,0.01
8:00:56 PM,-0.00,-0.70,8.66,-0.00,-0.01,0.01
8:00:56 PM,0.25,-0.73,8.55,-0.01,-0.13,0.01
8:00:56 PM,0.55,-0.80,8.61,-0.01,-0.06,0.01
8:00:56 PM,0.16,-0.64,8.44,0.02,0.05,0.01
8:00:56 PM,0.30,-0.83,8.63,-0.06,-0.09,0.01
8:00:56 PM,0.14,-0.83,8.70,0.02,0.02,0.01
8:00:56 PM,0.32,-0.74,8.65,0.02,0.05,0.01
8:00:56 PM,0.47,-0.75,8.48,-0.00,-0.06,0.01
8:00:57 PM,0.34,-0.81,8.70,0.04,-0.02,0.01
8:00:57 PM,0.27,-0.75,8.59,-0.01,-0.02,0.01
8:00:57 PM,-0.02,-0.62,8.40,0.00,-0.02,0.01
8:00:57 PM,0.07,-0.62,8.55,0.01,0.04,0.01
8:00:57 PM,0.40,-0.78,8.64,0.00,-0.11,0.01
8:00:57 PM,0.58,-0.81,8.61,-0.01,-0.04,0.01
8:00:57 PM,0.60,-0.78,8.56,0.02,-0.01,0.01
8:00:57 PM,0.39,-0.72,8.48,0.06,-0.03,0.01
8:00:57 PM,0.05,0.78,8.69,0.11,-0.17,0.01
8:00:58 PM,0.06,-0.71,8.72,0.05,-0.02,0.01
8:00:58 PM,-0.04,-0.36,8.66,0.09,0.47,0.01
8:00:58 PM,0.19,-0.58,8.76,0.03,-0.05,0.01
8:00:58 PM,-0.21,-0.90,8.71,0.22,0.90,0.01
8:00:58 PM,-0.46,-0.15,8.62,0.01,-0.05,0.01
8:00:58 PM,-0.27,-0.31,8.79,0.01,-0.04,0.01
8:00:58 PM,-0.02,-0.53,8.88,0.01,-0.15,0.01
8:00:58 PM,-0.20,-0.39,8.74,0.02,0.07,0.01
8:00:58 PM,-0.00,-0.42,8.59,-0.01,-0.06,0.01
8:00:58 PM,0.22,-0.43,8.68,0.00,-0.09,0.01
8:00:59 PM,-0.02,-0.45,8.63,0.02,-0.06,0.01
8:00:59 PM,0.40,-0.48,8.64,-0.03,-0.03,0.01
8:00:59 PM,-0.09,-0.35,8.51,0.01,0.02,0.01
8:00:59 PM,-0.20,-0.45,8.64,0.01,-0.00,0.01
8:00:59 PM,0.02,-0.43,8.67,-0.00,-0.04,0.01
8:00:59 PM,0.15,-0.51,8.73,0.02,-0.04,0.01
8:00:59 PM,-0.16,-0.44,8.76,0.00,0.03,0.01
8:00:59 PM,0.16,-0.36,8.54,0.01,0.05,0.01
8:00:59 PM,-0.07,-0.40,8.50,-0.01,-0.00,0.01
8:01:00 PM,0.15,-0.48,8.70,0.02,0.04,0.01
8:01:00 PM,0.05,-0.38,8.57,0.01,-0.03,0.01
8:01:00 PM,-0.14,-0.41,8.72,0.00,-0.06,0.01
8:01:00 PM,0.07,-0.44,8.66,0.02,-0.03,0.01
8:01:00 PM,0.22,-0.52,8.85,0.02,-0.09,0.01
8:01:00 PM,0.23,-0.41,8.58,0.02,-0.00,0.01
8:01:00 PM,-0.02,-0.54,8.88,0.01,-0.03,0.01
8:01:00 PM,0.09,-0.41,8.57,-0.03,-0.05,0.01
8:01:00 PM,0.17,-0.51,8.75,0.02,0.00,0.01
8:01:00 PM,-0.26,-0.44,8.75,0.01,0.11,0.01
8:01:01 PM,0.27,-0.48,8.60,0.05,-0.06,0.01
8:01:01 PM,-0.01,-0.55,8.80,0.02,-0.02,0.01
8:01:01 PM,-0.07,-0.46,8.69,0.01,-0.07,0.01
8:01:01 PM,-0.06,-0.50,8.77,-0.02,-0.02,0.01
8:01:01 PM,-0.06,-0.51,8.83,0.03,0.08,0.01
8:01:01 PM,0.03,-0.50,8.77,-0.04,-0.03,0.01
8:01:01 PM,0.14,-0.45,8.69,-0.03,-0.09,0.01
8:01:01 PM,0.41,-0.50,8.72,0.01,-0.00,0.01
8:01:01 PM,0.06,-0.39,8.62,-0.02,-0.02,0.01
8:01:02 PM,0.09,-0.34,8.49,0.01,0.01,0.01
8:01:02 PM,0.08,-0.46,8.61,0.00,-0.07,0.01
8:01:02 PM,0.42,-0.47,8.87,0.06,0.03,0.01
8:01:02 PM,-0.04,-0.38,8.59,0.03,-0.07,0.01
8:01:02 PM,0.22,-0.49,8.66,-0.02,-0.05,0.01
8:01:02 PM,0.32,-0.42,8.66,0.03,-0.01,0.01
8:01:02 PM,0.09,-0.48,8.73,-0.01,-0.13,0.01
8:01:02 PM,0.20,-0.54,8.72,0.01,0.02,0.01
8:01:02 PM,0.21,-0.50,8.71,0.02,0.06,0.01
8:01:03 PM,0.01,-0.40,8.54,0.03,0.11,0.01
8:01:03 PM,0.06,-0.38,8.63,-0.03,-0.11,0.01
8:01:03 PM,0.83,-0.64,8.74,-0.03,-0.07,0.01
8:01:03 PM,0.49,-0.47,8.51,-0.01,-0.04,0.01
8:01:03 PM,0.38,-0.42,8.48,0.04,0.01,0.01
8:01:03 PM,-0.11,-0.48,8.71,0.03,0.03,0.01
8:01:03 PM,-0.03,-0.30,8.56,0.01,-0.02,0.01
8:01:03 PM,-0.12,-0.43,8.80,-0.01,-0.05,0.01
8:01:03 PM,-0.02,-0.28,8.46,-0.04,0.01,0.01
8:01:03 PM,0.45,-0.51,8.72,-0.03,-0.02,0.01
8:01:04 PM,-0.81,-0.03,7.95,-0.15,-0.37,0.02
8:01:04 PM,0.37,-0.65,8.66,0.07,0.07,0.01
8:01:04 PM,-0.14,-0.50,8.54,0.00,-0.01,0.01
8:01:04 PM,0.14,-0.56,8.54,-0.02,-0.03,0.01
8:01:04 PM,0.60,-0.65,8.56,-0.03,-0.06,0.01
8:01:04 PM,0.43,-0.59,8.60,0.04,-0.08,0.01
8:01:04 PM,0.32,-0.66,8.79,-0.00,0.01,0.01
8:01:04 PM,0.48,-0.54,8.54,0.02,-0.05,0.01
8:01:04 PM,0.64,-0.51,8.50,0.03,-0.07,0.01
8:01:05 PM,0.57,-0.57,8.69,0.00,-0.00,0.01
8:01:05 PM,0.18,-0.55,8.60,-0.01,0.06,0.01
8:01:05 PM,0.41,-0.53,8.49,-0.07,0.08,0.01
8:01:05 PM,0.23,-0.60,8.48,-0.03,0.04,0.01
8:01:05 PM,0.45,-0.53,8.39,0.04,0.04,0.01
8:01:05 PM,0.39,-0.59,8.61,0.07,-0.05,0.01
8:01:05 PM,0.24,-0.47,8.49,0.05,-0.04,0.01
8:01:05 PM,0.52,-0.61,8.53,0.04,-0.12,0.01
8:01:05 PM,0.23,-0.57,8.64,0.05,0.02,0.01
8:01:05 PM,0.33,-0.64,8.81,0.04,-0.06,0.01
8:01:06 PM,0.22,-0.56,8.56,0.02,-0.08,0.01
8:01:06 PM,0.32,-0.53,8.50,0.02,-0.09,0.01
8:01:06 PM,0.10,-0.65,8.72,-0.00,-0.04,0.01
8:01:06 PM,0.29,-0.58,8.77,0.04,-0.06,0.01
8:01:06 PM,0.19,-0.68,8.90,0.02,0.05,0.01
8:01:06 PM,0.11,-0.57,8.71,0.03,0.03,0.01
8:01:06 PM,0.19,-0.58,8.55,0.03,0.02,0.01
8:01:06 PM,0.44,-0.65,8.67,0.03,-0.04,0.01
8:01:06 PM,0.07,-0.60,8.51,0.00,0.03,0.01
8:01:07 PM,0.52,-0.67,8.74,0.06,0.02,0.01
8:01:07 PM,0.45,-0.45,8.26,0.01,-0.09,0.01
8:01:07 PM,0.50,-0.57,8.63,-0.00,-0.00,0.01
8:01:07 PM,0.30,-0.60,8.63,-0.00,-0.06,0.01
8:01:07 PM,0.28,-0.64,8.61,0.02,-0.08,0.01
8:01:07 PM,0.07,-0.66,8.64,0.02,0.03,0.01
8:01:07 PM,0.44,-0.66,8.71,-0.05,-0.06,0.01
8:01:07 PM,0.02,-0.44,8.54,0.03,0.11,0.01
8:01:07 PM,0.19,-0.51,8.36,0.02,-0.03,0.01
8:01:07 PM,0.69,-0.58,8.39,0.04,-0.04,0.01
8:01:08 PM,0.37,-0.57,8.57,0.05,0.03,0.01
8:01:08 PM,0.11,-0.63,8.77,0.06,-0.02,0.01
8:01:08 PM,0.24,-0.43,8.36,0.02,0.20,0.01
8:01:08 PM,0.46,-0.53,8.52,0.03,-0.01,0.01
8:01:08 PM,1.02,-0.41,9.33,0.15,0.01,0.01
8:01:08 PM,0.83,-0.40,8.56,0.13,0.18,0.01
8:01:08 PM,0.08,-0.41,8.58,-0.03,0.04,0.01
8:01:08 PM,0.29,-0.51,8.53,-0.01,0.08,0.01
8:01:08 PM,0.14,-0.52,8.60,-0.05,0.00,0.01
8:01:09 PM,0.30,-0.57,8.71,-0.03,0.01,0.01
8:01:09 PM,0.37,-0.63,8.78,0.02,-0.04,0.01
8:01:09 PM,0.41,-0.62,8.65,0.01,-0.01,0.01
8:01:09 PM,0.39,-0.37,8.38,0.02,0.07,0.01
8:01:09 PM,0.07,-0.54,8.61,-0.01,-0.00,0.01
8:01:09 PM,-0.10,-0.57,8.87,-0.01,0.02,0.01
8:01:09 PM,0.20,-0.62,8.77,-0.01,0.01,0.01
8:01:09 PM,0.23,-0.50,8.57,-0.00,-0.02,0.01
8:01:09 PM,0.38,-0.42,8.53,-0.01,-0.02,0.01
8:01:09 PM,0.18,-0.53,8.55,0.00,-0.04,0.01
8:01:10 PM,0.51,-0.59,8.63,0.04,-0.06,0.01
8:01:10 PM,0.52,-0.62,8.77,-0.02,-0.03,0.01
8:01:10 PM,-0.04,-0.67,8.86,-0.03,0.04,0.01
8:01:10 PM,0.06,-0.56,8.74,-0.02,-0.09,0.01
8:01:10 PM,0.23,-0.47,8.36,0.07,0.06,0.01
8:01:10 PM,0.21,-0.51,8.60,0.04,0.02,0.01
8:01:10 PM,0.33,-0.57,8.52,0.08,-0.01,0.01
8:01:10 PM,0.34,-0.54,8.57,-0.01,0.03,0.01
8:01:10 PM,0.42,-0.56,8.71,0.02,-0.06,0.01
8:01:11 PM,0.15,-0.74,8.96,0.02,-0.02,0.01
8:01:11 PM,0.12,-0.44,8.54,0.01,0.08,0.01
8:01:11 PM,0.52,-0.51,8.44,0.01,-0.08,0.01
8:01:11 PM,0.43,-0.52,8.54,0.04,-0.01,0.01
8:01:11 PM,0.69,-0.54,8.48,0.05,-0.05,0.01
8:01:11 PM,0.56,-0.51,8.50,0.03,0.05,0.01
8:01:11 PM,0.20,-0.61,8.78,0.04,-0.03,0.01
8:01:11 PM,0.41,-0.51,8.38,0.03,0.02,0.01
8:01:11 PM,0.41,-0.63,8.74,-0.01,-0.07,0.01
8:01:11 PM,0.31,-0.67,8.61,-0.05,-0.08,0.01
8:01:12 PM,0.58,-0.65,8.64,0.01,-0.05,0.01
8:01:12 PM,0.28,-0.62,8.69,-0.01,-0.04,0.01
8:01:12 PM,0.53,-0.57,8.55,-0.02,-0.05,0.01
8:01:12 PM,0.23,-0.59,8.65,0.00,0.07,0.01
8:01:12 PM,0.38,-0.62,8.62,-0.02,-0.01,0.01
8:01:12 PM,0.29,-0.67,8.70,-0.02,0.03,0.01
8:01:12 PM,0.25,-0.50,8.54,-0.04,0.03,0.01
8:01:12 PM,0.26,-0.45,8.25,-0.02,0.01,0.01
8:01:12 PM,0.66,-0.53,8.32,-0.03,-0.06,0.01
8:01:13 PM,0.28,-0.53,8.42,-0.01,0.10,0.01
8:01:13 PM,0.18,-0.50,8.37,-0.03,-0.06,0.01
8:01:13 PM,0.48,-0.57,8.54,0.06,-0.03,0.01
8:01:13 PM,0.15,-0.60,8.74,0.02,-0.02,0.01
8:01:13 PM,0.16,-0.51,8.48,0.02,-0.06,0.01
8:01:13 PM,0.49,-0.60,8.68,0.01,-0.04,0.01
8:01:13 PM,0.30,-0.56,8.62,0.02,0.05,0.01
8:01:13 PM,0.25,-0.51,8.36,0.03,-0.04,0.01
8:01:13 PM,0.38,-0.61,8.71,0.02,-0.06,0.01
8:01:14 PM,0.12,-0.56,8.70,0.03,0.00,0.01
8:01:14 PM,0.33,-0.62,8.63,-0.03,-0.06,0.01
8:01:14 PM,0.54,-0.49,8.43,0.01,0.01,0.01
8:01:14 PM,0.57,-0.50,8.33,0.01,-0.01,0.01
8:01:14 PM,0.47,-0.57,8.41,0.06,-0.04,0.01
8:01:14 PM,0.18,-0.52,8.59,0.04,-0.02,0.01
8:01:14 PM,0.33,-0.48,8.61,0.01,0.02,0.01
8:01:14 PM,0.01,-0.47,8.56,0.01,0.00,0.01
8:01:14 PM,0.24,-0.68,8.82,-0.02,-0.10,0.01
8:01:14 PM,0.97,-0.70,8.66,0.00,-0.04,0.01
8:01:15 PM,0.31,-0.59,8.68,0.01,0.01,0.01
8:01:15 PM,0.57,-0.57,8.64,-0.01,-0.07,0.01
8:01:15 PM,0.21,-0.57,8.71,0.04,0.04,0.01
8:01:15 PM,0.16,-0.51,8.53,0.00,0.04,0.01
8:01:15 PM,0.10,-0.65,8.75,0.01,-0.01,0.01
8:01:15 PM,0.03,-0.70,8.84,0.02,0.01,0.01
8:01:15 PM,0.09,-0.55,8.60,0.04,-0.01,0.01
8:01:15 PM,0.28,-0.54,8.53,-0.00,-0.05,0.01
8:01:15 PM,0.29,-0.64,8.69,0.01,-0.04,0.01
8:01:16 PM,0.20,-0.59,8.59,0.02,0.01,0.01
8:01:16 PM,0.08,-0.54,8.65,0.02,-0.01,0.01
8:01:16 PM,0.07,-0.52,8.67,0.04,0.08,0.01
8:01:16 PM,0.23,-0.65,8.66,0.01,0.01,0.01
8:01:16 PM,0.69,-0.76,8.77,-0.00,-0.09,0.01
8:01:16 PM,0.08,-0.72,8.70,-0.01,0.03,0.01
8:01:16 PM,0.34,-0.55,8.71,-0.03,-0.16,0.01
8:01:16 PM,0.46,-0.60,8.62,0.04,-0.02,0.01
8:01:16 PM,0.32,-0.47,8.49,0.02,0.01,0.01
8:01:16 PM,0.35,-0.46,8.44,0.00,0.02,0.01
8:01:17 PM,0.17,-0.49,8.58,-0.01,0.02,0.01
8:01:17 PM,0.28,-0.57,8.60,0.00,-0.10,0.01
8:01:17 PM,0.16,-0.52,8.73,0.01,-0.04,0.01
8:01:17 PM,0.07,-0.55,8.74,0.02,-0.05,0.01
8:01:17 PM,0.27,-0.55,8.69,-0.01,-0.05,0.01
8:01:17 PM,0.59,-0.46,8.47,0.05,0.05,0.01
8:01:17 PM,0.22,-0.50,8.59,0.05,0.06,0.01
8:01:17 PM,0.13,-0.41,8.44,0.02,-0.03,0.01
8:01:17 PM,0.35,-0.55,8.79,0.05,0.04,0.01
8:01:18 PM,-0.06,-0.44,8.49,0.02,0.09,0.01
8:01:18 PM,0.11,-0.53,8.63,0.01,-0.07,0.01
8:01:18 PM,0.76,-0.60,8.59,0.06,-0.12,0.01
8:01:18 PM,0.44,-0.54,8.69,0.05,0.05,0.01
8:01:18 PM,0.06,-0.53,8.67,-0.02,-0.01,0.01
8:01:18 PM,0.42,-0.62,8.64,-0.03,-0.05,0.01
8:01:18 PM,0.49,-0.68,8.80,-0.01,0.03,0.01
8:01:18 PM,0.29,-0.51,8.45,0.04,0.13,0.01
8:01:18 PM,0.39,-0.60,8.50,0.01,-0.06,0.01
8:01:18 PM,0.46,-0.54,8.47,0.03,-0.09,0.01
8:01:19 PM,0.27,-0.66,8.73,0.02,-0.07,0.01
8:01:19 PM,0.21,-0.65,8.71,0.00,-0.10,0.01
8:01:19 PM,0.43,-0.69,8.66,-0.00,-0.07,0.01
8:01:19 PM,0.47,-0.55,8.71,0.02,-0.02,0.01
8:01:19 PM,0.46,-0.61,8.62,0.02,0.01,0.01
8:01:19 PM,0.22,-0.49,8.42,0.02,-0.01,0.01
8:01:19 PM,0.40,-0.62,8.55,-0.02,-0.09,0.01
8:01:19 PM,0.38,-0.57,8.45,-0.02,-0.01,0.01
8:01:19 PM,0.18,-0.57,8.44,-0.02,-0.02,0.01
8:01:20 PM,0.07,-0.48,8.36,-0.01,-0.06,0.01
8:01:20 PM,0.48,-0.57,8.58,-0.02,-0.06,0.01
8:01:20 PM,0.61,-0.67,8.71,0.08,0.00,0.01
8:01:20 PM,0.16,-0.58,8.57,-0.01,-0.02,0.01
8:01:20 PM,0.40,-0.71,8.78,-0.06,-0.07,0.01
8:01:20 PM,0.13,-0.70,8.64,0.01,0.04,0.01
8:01:20 PM,0.60,-0.60,8.53,0.05,-0.03,0.01
8:01:20 PM,0.39,-0.67,8.72,0.05,-0.06,0.01
8:01:20 PM,0.07,-0.52,8.59,0.02,0.08,0.01
8:01:20 PM,0.01,-0.56,8.58,0.01,-0.03,0.01
8:01:21 PM,0.48,-0.67,8.59,-0.03,-0.10,0.01
8:01:21 PM,0.31,-0.53,8.54,-0.01,0.03,0.01
8:01:21 PM,0.13,-0.59,8.51,0.01,-0.05,0.01
8:01:21 PM,0.43,-0.59,8.52,0.00,-0.05,0.01
8:01:21 PM,0.25,-0.59,8.66,0.01,0.02,0.01
8:01:21 PM,-0.02,-0.55,8.73,0.00,0.09,0.01
8:01:21 PM,0.21,-0.50,8.37,-0.05,-0.02,0.01
8:01:21 PM,0.42,-0.71,8.73,-0.00,-0.04,0.01
8:01:21 PM,0.07,-0.60,8.80,0.04,0.08,0.01
8:01:22 PM,0.04,-0.68,8.88,0.01,-0.05,0.01
8:01:22 PM,0.23,-0.50,8.45,0.02,-0.06,0.01
8:01:22 PM,0.23,-0.63,8.67,0.05,-0.04,0.01
8:01:22 PM,0.23,-0.60,8.70,0.01,-0.01,0.01
8:01:22 PM,0.27,-0.59,8.63,0.04,-0.05,0.01
8:01:22 PM,0.25,-0.58,8.65,-0.03,-0.11,0.01
8:01:22 PM,0.06,-0.54,8.66,-0.02,0.06,0.01
8:01:22 PM,0.31,-0.60,8.63,-0.06,-0.14,0.01
8:01:22 PM,0.49,-0.57,8.43,-0.00,0.01,0.01
8:01:22 PM,0.17,-0.63,8.81,0.02,-0.00,0.01
8:01:23 PM,0.28,-0.54,8.58,0.01,-0.01,0.01
8:01:23 PM,0.45,-0.61,8.68,0.00,0.00,0.01
8:01:23 PM,0.28,-0.57,8.64,0.01,0.05,0.01
8:01:23 PM,0.20,-0.50,8.48,-0.02,0.00,0.01
8:01:23 PM,0.31,-0.53,8.57,0.00,0.03,0.01
8:01:23 PM,0.20,-0.58,8.73,0.02,0.04,0.01
8:01:23 PM,0.06,-0.53,8.65,-0.00,0.06,0.01
8:01:23 PM,0.19,-0.65,8.78,0.00,-0.02,0.01
8:01:23 PM,0.20,-0.70,8.84,-0.03,0.01,0.01
8:01:24 PM,0.22,-0.63,8.76,-0.01,0.07,0.01
8:01:24 PM,0.11,-0.56,8.65,0.03,0.03,0.01
8:01:24 PM,0.13,-0.56,8.60,0.04,0.03,0.01
8:01:24 PM,0.32,-0.49,8.39,-0.01,0.01,0.01
8:01:24 PM,0.22,-0.46,8.43,0.01,0.01,0.01
8:01:24 PM,0.21,-0.52,8.60,0.01,-0.08,0.01
8:01:24 PM,0.39,-0.59,8.54,0.04,0.01,0.01
8:01:24 PM,0.11,-0.61,8.74,-0.01,-0.02,0.01
8:01:24 PM,0.08,-0.61,8.79,-0.00,0.03,0.01
8:01:24 PM,0.29,-0.57,8.66,0.02,0.03,0.01
8:01:25 PM,0.02,-0.50,8.51,-0.03,0.01,0.01
8:01:25 PM,0.66,-0.57,8.43,0.02,-0.10,0.01
8:01:25 PM,0.63,-0.62,8.58,0.05,-0.05,0.01
8:01:25 PM,0.17,-0.61,8.73,-0.01,-0.07,0.01
8:01:25 PM,0.18,-0.56,8.65,0.01,0.01,0.01
8:01:25 PM,0.21,-0.51,8.63,0.07,0.01,0.01
8:01:25 PM,0.31,-0.61,8.53,0.01,-0.01,0.01
8:01:25 PM,0.25,-0.51,8.47,0.02,-0.10,0.01
8:01:25 PM,0.47,-0.53,8.60,0.01,0.00,0.01
8:01:26 PM,0.17,-0.45,8.55,0.05,-0.06,0.01
8:01:26 PM,0.24,-0.56,8.71,0.03,-0.03,0.01
8:01:26 PM,0.12,-0.60,8.64,-0.03,-0.06,0.01
8:01:26 PM,0.31,-0.60,8.70,-0.02,0.04,0.01
8:01:26 PM,0.42,-0.53,8.59,0.02,-0.09,0.01
8:01:26 PM,0.23,-0.49,8.55,0.07,0.02,0.01
8:01:26 PM,0.39,-0.57,8.60,-0.00,-0.13,0.01
8:01:26 PM,0.51,-0.61,8.78,0.01,-0.01,0.01
8:01:26 PM,0.41,-0.68,8.90,-0.01,-0.02,0.01
8:01:26 PM,0.28,-0.62,8.78,0.02,-0.04,0.01
8:01:27 PM,0.43,-0.57,8.61,-0.01,0.01,0.01
8:01:27 PM,0.27,-0.59,8.73,0.07,0.01,0.01
8:01:27 PM,0.13,-0.51,8.57,-0.01,-0.01,0.01
8:01:27 PM,0.29,-0.55,8.69,-0.03,-0.03,0.01
8:01:27 PM,0.19,-0.64,8.70,0.01,0.06,0.01
8:01:27 PM,0.10,-0.58,8.69,0.04,0.05,0.01
8:01:27 PM,0.20,-0.55,8.56,-0.02,-0.10,0.01
8:01:27 PM,0.61,-0.55,8.59,0.01,0.00,0.01
8:01:27 PM,0.19,-0.56,8.59,0.01,0.02,0.01
8:01:28 PM,0.41,-0.51,8.45,0.03,-0.04,0.01
8:01:28 PM,0.32,-0.63,8.59,0.05,-0.08,0.01
8:01:28 PM,0.29,-0.77,8.85,-0.03,-0.15,0.01
8:01:28 PM,0.23,-0.79,8.82,-0.02,-0.01,0.01
8:01:28 PM,0.24,-0.57,8.49,-0.02,-0.00,0.01
8:01:28 PM,0.42,-0.73,8.72,0.00,-0.10,0.01
8:01:28 PM,0.70,-0.63,8.75,0.03,-0.10,0.01
8:01:28 PM,0.21,-0.60,8.75,0.04,0.07,0.01
8:01:28 PM,-0.37,-0.41,8.47,-0.01,-0.07,0.01
8:01:29 PM,0.07,-0.52,8.52,-0.06,-0.21,0.01
8:01:29 PM,0.45,-0.57,8.61,-0.03,-0.06,0.01
8:01:29 PM,0.08,-0.45,8.60,-0.01,-0.05,0.01
8:01:29 PM,0.49,-0.63,8.62,-0.03,-0.08,0.01
8:01:29 PM,0.18,-0.54,8.69,-0.00,0.02,0.01
8:01:29 PM,0.15,-0.57,8.67,0.02,-0.01,0.01
8:01:29 PM,-0.09,-0.55,8.73,-0.05,-0.12,0.01
8:01:29 PM,0.51,-0.65,8.67,-0.03,-0.05,0.01
8:01:29 PM,0.43,-0.46,8.59,0.07,0.15,0.01
8:01:29 PM,0.03,-0.47,8.49,0.09,0.06,0.01
8:01:30 PM,0.49,-0.73,8.60,-0.01,-0.14,0.01
8:01:30 PM,0.65,-0.62,8.74,-0.01,-0.08,0.01
8:01:30 PM,0.24,-0.43,8.47,0.03,-0.03,0.01
8:01:30 PM,-0.15,-0.35,8.45,0.03,0.04,0.01
8:01:30 PM,0.24,-0.63,8.66,-0.00,-0.11,0.01
8:01:30 PM,0.41,-0.59,8.47,0.07,0.07,0.01
8:01:30 PM,0.17,-0.67,8.84,0.04,0.06,0.01
8:01:30 PM,-0.07,-0.64,8.83,0.02,0.03,0.01
8:01:30 PM,0.18,-0.69,8.71,-0.02,-0.07,0.01
8:01:31 PM,0.20,-0.50,8.47,-0.04,-0.07,0.01
8:01:31 PM,0.48,-0.63,8.54,-0.03,-0.07,0.01
8:01:31 PM,0.90,-0.77,8.63,-0.02,-0.04,0.01
8:01:31 PM,-0.04,-0.42,8.38,0.03,0.09,0.01
8:01:31 PM,0.17,-0.54,8.57,0.01,-0.05,0.01
8:01:31 PM,0.47,-0.67,8.63,0.03,-0.01,0.01
8:01:31 PM,0.26,-0.75,8.95,0.04,0.06,0.01
8:01:31 PM,-0.20,-0.62,8.70,-0.03,-0.02,0.01
8:01:31 PM,-0.06,-0.64,8.76,-0.03,-0.11,0.01
8:01:31 PM,0.33,-0.53,8.58,-0.04,-0.05,0.01
8:01:32 PM,0.47,-0.48,8.36,0.02,0.07,0.01
8:01:32 PM,0.25,-0.51,8.51,0.02,0.03,0.01
8:01:32 PM,0.09,-0.47,8.48,0.02,0.04,0.01
8:01:32 PM,0.12,-0.53,8.58,-0.02,-0.07,0.01
8:01:32 PM,0.50,-0.60,8.56,-0.00,-0.09,0.01
8:01:32 PM,0.36,-0.56,8.57,0.03,0.04,0.01
8:01:32 PM,0.21,-0.50,8.57,-0.01,0.03,0.01
8:01:32 PM,-0.05,-0.41,8.43,0.02,0.13,0.01
8:01:32 PM,0.09,-0.50,8.67,0.00,0.05,0.01
8:01:33 PM,0.27,-0.50,8.53,0.03,-0.00,0.01
8:01:33 PM,0.21,-0.49,8.62,-0.01,0.02,0.01
8:01:33 PM,0.18,-0.49,8.49,0.02,0.05,0.01
8:01:33 PM,0.48,-0.46,8.48,0.04,-0.06,0.01
8:01:33 PM,0.41,-0.56,8.60,-0.03,-0.01,0.01
8:01:33 PM,0.53,-0.53,8.52,0.02,-0.04,0.01
8:01:33 PM,0.42,-0.52,8.61,0.01,0.02,0.01
8:01:33 PM,0.31,-0.53,8.63,-0.05,-0.13,0.01
8:01:33 PM,0.44,-0.57,8.48,0.02,-0.04,0.01
8:01:33 PM,0.23,-0.57,8.67,-0.00,-0.05,0.01
8:01:34 PM,0.06,-0.51,8.59,-0.01,-0.02,0.01
8:01:34 PM,0.36,-0.51,8.68,-0.04,-0.13,0.01
8:01:34 PM,0.32,-0.52,8.61,0.00,-0.00,0.01
8:01:34 PM,0.11,-0.59,8.76,0.02,-0.01,0.01
8:01:34 PM,-0.02,-0.47,8.59,0.02,0.01,0.01
8:01:34 PM,0.24,-0.43,8.43,-0.01,-0.01,0.01
8:01:34 PM,0.11,-0.45,8.64,0.04,0.02,0.01
8:01:34 PM,0.02,-0.64,8.80,-0.02,-0.07,0.01
8:01:34 PM,0.41,-0.60,8.69,0.03,0.01,0.01
8:01:35 PM,0.03,-0.47,8.62,-0.01,0.04,0.01
8:01:35 PM,0.09,-0.54,8.69,-0.02,-0.04,0.01
8:01:35 PM,0.36,-0.55,8.64,0.04,-0.06,0.01
8:01:35 PM,0.32,-0.41,8.51,0.04,-0.02,0.01
8:01:35 PM,0.20,-0.52,8.63,-0.00,-0.05,0.01
8:01:35 PM,0.28,-0.58,8.73,0.03,0.01,0.01
8:01:35 PM,-0.11,-0.52,8.76,0.03,0.07,0.01
8:01:35 PM,0.05,-0.61,8.89,0.06,0.02,0.01
8:01:35 PM,0.08,-0.50,8.73,-0.00,-0.03,0.01
8:01:35 PM,0.32,-0.61,8.87,0.04,0.02,0.01
8:01:36 PM,0.10,-0.63,8.78,0.01,0.00,0.01
8:01:36 PM,0.44,-0.53,8.43,0.00,0.00,0.01
8:01:36 PM,0.34,-0.60,8.80,0.04,0.05,0.01
8:01:36 PM,0.11,-0.46,8.59,0.01,0.15,0.01
8:01:36 PM,0.20,-0.57,8.63,-0.02,-0.05,0.01
8:01:36 PM,0.58,-0.62,8.57,-0.01,0.00,0.01
8:01:36 PM,0.09,-0.42,8.52,0.03,0.01,0.01
8:01:36 PM,0.13,-0.47,8.62,0.02,-0.04,0.01
8:01:36 PM,0.11,-0.43,8.49,-0.02,-0.06,0.01
8:01:37 PM,0.30,-0.57,8.69,0.01,-0.01,0.01
8:01:37 PM,0.40,-0.50,8.63,0.04,0.11,0.01
8:01:37 PM,0.00,-0.38,8.54,0.04,0.10,0.01
8:01:37 PM,-0.07,-0.54,8.73,0.02,-0.01,0.01
8:01:37 PM,0.28,-0.58,8.76,-0.01,-0.10,0.01
8:01:37 PM,0.24,-0.47,8.58,0.01,-0.01,0.01
8:01:37 PM,0.53,-0.55,8.50,-0.01,-0.00,0.01
8:01:37 PM,0.37,-0.55,8.64,0.05,0.08,0.01
8:01:37 PM,-0.00,-0.51,8.78,0.06,0.01,0.01
8:01:37 PM,-0.11,-0.63,8.95,0.01,-0.04,0.01
8:01:38 PM,-0.06,-0.59,8.72,-0.03,-0.07,0.01
8:01:38 PM,0.09,-0.42,8.50,0.03,0.11,0.01
8:01:38 PM,0.17,-0.49,8.62,0.01,-0.06,0.01
8:01:38 PM,0.12,-0.41,8.47,0.04,0.03,0.01
8:01:38 PM,0.16,-0.51,8.68,-0.01,0.02,0.01
8:01:38 PM,0.24,-0.56,8.81,0.02,-0.06,0.01
8:01:38 PM,0.13,-0.52,8.83,-0.01,-0.02,0.01
8:01:38 PM,0.09,-0.45,8.73,0.03,0.05,0.01
8:01:38 PM,-0.14,-0.34,8.57,0.03,0.03,0.01
8:01:39 PM,0.05,-0.45,8.55,0.01,-0.07,0.01
8:01:39 PM,0.37,-0.54,8.77,-0.01,-0.06,0.01
8:01:39 PM,0.28,-0.43,8.69,0.00,0.03,0.01
8:01:39 PM,0.23,-0.38,8.43,0.01,-0.06,0.01
8:01:39 PM,0.40,-0.45,8.55,0.04,0.04,0.01
8:01:39 PM,0.26,-0.35,8.54,0.04,-0.09,0.01
8:01:39 PM,0.29,-0.46,8.59,0.00,-0.04,0.01
8:01:39 PM,-0.13,-0.40,8.77,0.00,0.06,0.01
8:01:39 PM,0.04,-0.36,8.46,-0.01,-0.03,0.01
8:01:40 PM,0.35,-0.41,8.50,0.00,0.03,0.01
8:01:40 PM,0.02,-0.45,8.71,0.01,-0.01,0.01
8:01:40 PM,0.23,-0.51,8.70,0.02,-0.06,0.01
8:01:40 PM,0.22,-0.54,8.95,0.03,-0.00,0.01
8:01:40 PM,0.08,-0.48,8.68,-0.02,-0.03,0.01
8:01:40 PM,-0.04,-0.30,8.42,0.01,0.07,0.01
8:01:40 PM,0.24,-0.41,8.48,0.04,0.05,0.01
8:01:40 PM,0.42,-0.45,8.63,0.05,0.00,0.01
8:01:40 PM,0.13,-0.49,8.68,0.02,0.02,0.01
8:01:40 PM,0.07,-0.46,8.70,0.02,0.01,0.01
8:01:41 PM,-0.08,-0.37,8.51,0.04,0.09,0.01
8:01:41 PM,-0.01,-0.37,8.56,-0.01,-0.09,0.01
8:01:41 PM,0.59,-0.63,8.78,-0.01,-0.10,0.01
8:01:41 PM,0.36,-0.53,8.77,0.04,0.05,0.01
8:01:41 PM,0.18,-0.41,8.63,0.03,0.00,0.01
8:01:41 PM,0.34,-0.62,8.92,-0.04,-0.07,0.01
8:01:41 PM,0.32,-0.45,8.58,-0.00,-0.01,0.01
8:01:41 PM,0.23,-0.42,8.61,0.01,0.01,0.01
8:01:41 PM,0.11,-0.40,8.49,0.01,-0.01,0.01
8:01:42 PM,0.35,-0.45,8.73,0.02,-0.10,0.01
8:01:42 PM,0.39,-0.57,8.68,0.01,-0.04,0.01
8:01:42 PM,0.54,-0.55,8.72,0.02,-0.06,0.01
8:01:42 PM,0.11,-0.40,8.64,0.01,0.02,0.01
8:01:42 PM,-0.27,-0.37,8.62,0.02,0.04,0.01
8:01:42 PM,0.05,-0.43,8.63,-0.00,-0.10,0.01
8:01:42 PM,0.19,-0.42,8.58,0.00,-0.06,0.01
8:01:42 PM,0.05,-0.44,8.81,0.04,-0.01,0.01
8:01:42 PM,0.37,-0.37,8.53,0.00,-0.04,0.01
8:01:42 PM,0.34,-0.34,8.60,0.02,-0.02,0.01
8:01:43 PM,0.23,-0.44,8.67,-0.02,-0.06,0.01
8:01:43 PM,0.04,-0.43,8.49,-0.01,0.03,0.01
8:01:43 PM,0.20,-0.40,8.55,-0.00,-0.08,0.01
8:01:43 PM,0.40,-0.47,8.52,-0.04,-0.06,0.01
8:01:43 PM,0.32,-0.51,8.68,0.02,0.01,0.01
8:01:43 PM,0.10,-0.46,8.63,-0.02,-0.02,0.01
8:01:43 PM,0.17,-0.40,8.42,-0.03,0.01,0.01
8:01:43 PM,0.18,-0.43,8.58,-0.00,-0.00,0.01
8:01:43 PM,0.16,-0.42,8.61,-0.01,-0.05,0.01
8:01:44 PM,0.30,-0.45,8.63,0.03,-0.02,0.01
8:01:44 PM,-0.09,-0.33,8.55,0.02,0.02,0.01
8:01:44 PM,0.32,-0.42,8.66,-0.01,-0.10,0.01
8:01:44 PM,0.32,-0.51,8.80,0.03,0.00,0.01
8:01:44 PM,0.03,-0.43,8.51,0.01,0.05,0.01
8:01:44 PM,0.30,-0.50,8.66,-0.02,0.00,0.01
8:01:44 PM,0.16,-0.42,8.71,-0.02,-0.01,0.01
8:01:44 PM,0.01,-0.39,8.60,0.02,0.05,0.01
8:01:44 PM,-0.20,-0.38,8.55,0.01,0.03,0.01
8:01:44 PM,0.20,-0.37,8.46,0.01,-0.02,0.01
8:01:45 PM,0.54,-0.58,8.74,0.00,-0.09,0.01
8:01:45 PM,0.37,-0.57,8.84,-0.01,0.04,0.01
8:01:45 PM,0.23,-0.48,8.64,-0.01,0.07,0.01
8:01:45 PM,0.03,-0.33,8.53,-0.00,0.11,0.01
8:01:45 PM,-0.09,-0.43,8.71,-0.05,-0.10,0.01
8:01:45 PM,0.19,-0.44,8.57,-0.03,-0.02,0.01
8:01:45 PM,-0.08,-0.38,8.76,-0.00,-0.03,0.01
8:01:45 PM,0.04,-0.48,8.74,-0.06,-0.12,0.01
8:01:45 PM,0.37,-0.43,8.72,0.01,-0.02,0.01
8:01:46 PM,0.37,-0.48,8.56,0.01,0.03,0.01
8:01:46 PM,0.12,-0.42,8.60,0.01,0.05,0.01
8:01:46 PM,0.11,-0.48,8.71,0.03,0.02,0.01
8:01:46 PM,0.05,-0.39,8.62,0.02,0.05,0.01
8:01:46 PM,-0.04,-0.37,8.60,0.03,-0.08,0.01
8:01:46 PM,0.18,-0.37,8.45,0.02,-0.05,0.01
8:01:46 PM,0.19,-0.41,8.53,-0.00,-0.00,0.01
8:01:46 PM,0.23,-0.44,8.52,0.01,-0.02,0.01
8:01:46 PM,0.46,-0.45,8.52,0.02,-0.07,0.01
8:01:46 PM,0.33,-0.42,8.56,0.04,0.05,0.01
8:01:47 PM,-0.11,-0.32,8.44,-0.01,-0.05,0.01
8:01:47 PM,0.45,-0.57,8.63,-0.01,-0.08,0.01
8:01:47 PM,0.23,-0.46,8.65,0.03,0.05,0.01
8:01:47 PM,0.17,-0.44,8.65,0.02,0.02,0.01
8:01:47 PM,0.34,-0.54,8.75,-0.01,-0.13,0.01
8:01:47 PM,0.55,-0.47,8.53,0.01,0.01,0.01
8:01:47 PM,0.40,-0.56,8.69,-0.01,-0.07,0.01
8:01:47 PM,0.53,-0.47,8.54,0.01,0.03,0.01
8:01:47 PM,0.28,-0.34,8.46,0.03,0.00,0.01
8:01:48 PM,0.28,-0.50,8.74,0.03,0.01,0.01
8:01:48 PM,0.41,-0.51,8.65,0.02,-0.02,0.01
8:01:48 PM,0.57,0.79,8.81,0.43,0.28,0.01
8:01:48 PM,0.03,-0.30,8.63,0.03,-0.12,0.01
8:01:48 PM,0.47,-0.44,8.57,0.01,-0.08,0.01
8:01:48 PM,0.43,-0.45,8.76,0.05,0.04,0.01
8:01:48 PM,-0.04,-0.34,8.77,0.01,0.03,0.01
8:01:48 PM,0.13,-0.43,8.71,-0.01,-0.03,0.01
8:01:48 PM,0.24,-0.49,8.84,-0.01,0.05,0.01
8:01:48 PM,0.20,-0.31,8.55,0.03,0.01,0.01
8:01:49 PM,0.19,-0.35,8.58,0.02,-0.06,0.01
8:01:49 PM,0.32,-0.47,8.68,0.01,-0.02,0.01
8:01:49 PM,0.35,-0.28,8.49,0.03,0.03,0.01
8:01:49 PM,0.11,-0.46,8.72,-0.00,-0.07,0.01
8:01:49 PM,0.32,-0.41,8.66,-0.02,-0.15,0.01
8:01:49 PM,0.14,-0.35,8.63,-0.00,-0.03,0.01
8:01:49 PM,-0.14,-0.42,8.78,-0.00,-0.05,0.01
8:01:49 PM,-0.08,-0.51,8.95,-0.04,-0.12,0.01
8:01:49 PM,0.23,-0.31,8.43,-0.00,-0.01,0.01
8:01:50 PM,0.05,-0.40,8.51,0.00,-0.06,0.01
8:01:50 PM,0.39,-0.50,8.72,-0.05,-0.12,0.01
8:01:50 PM,0.18,-0.38,8.70,-0.03,-0.09,0.01
8:01:50 PM,-0.21,-0.31,8.64,-0.03,0.00,0.01
8:01:50 PM,-0.09,-0.33,8.52,-0.01,-0.08,0.01
8:01:50 PM,0.06,-0.36,8.70,0.01,-0.10,0.01
8:01:50 PM,0.31,-0.35,8.63,0.04,-0.02,0.01
8:01:50 PM,0.01,-0.38,8.75,0.01,0.03,0.01
8:01:50 PM,-0.20,-0.27,8.63,-0.03,-0.02,0.01
8:01:50 PM,-0.04,-0.35,8.63,-0.01,-0.07,0.01
8:01:51 PM,0.31,-0.45,8.72,0.04,-0.10,0.01
8:01:51 PM,0.00,-0.31,8.45,-0.00,0.10,0.01
8:01:51 PM,0.30,-0.41,8.62,-0.06,-0.06,0.01
8:01:51 PM,0.16,-0.45,8.77,0.03,0.01,0.01
8:01:51 PM,0.44,-0.40,8.62,-0.01,-0.04,0.01
8:01:51 PM,0.03,-0.42,8.71,0.03,0.09,0.01
8:01:51 PM,0.04,-0.23,8.53,0.02,0.03,0.01
8:01:51 PM,-0.05,-0.16,8.51,0.01,0.01,0.01
8:01:51 PM,0.25,-0.46,8.74,-0.03,-0.08,0.01
8:01:52 PM,0.30,-0.41,8.63,0.01,0.02,0.01
8:01:52 PM,0.11,-0.33,8.66,-0.02,0.02,0.01
8:01:52 PM,0.00,-0.43,8.81,0.02,0.03,0.01
8:01:52 PM,0.03,-0.31,8.64,0.01,0.01,0.01
8:01:52 PM,0.00,-0.28,8.53,-0.00,0.02,0.01
8:01:52 PM,0.09,-0.35,8.72,-0.01,-0.03,0.01
8:01:52 PM,0.40,-0.39,8.64,-0.03,0.02,0.01
8:01:52 PM,0.18,-0.39,8.72,0.02,0.02,0.01
8:01:52 PM,0.11,-0.44,8.70,0.01,0.01,0.01
8:01:53 PM,0.18,-0.38,8.66,0.02,0.03,0.01
8:01:53 PM,0.03,-0.25,8.55,0.01,-0.03,0.01
8:01:53 PM,0.24,-0.44,8.77,0.00,-0.04,0.01
8:01:53 PM,0.19,-0.42,8.71,-0.03,0.00,0.01
8:01:53 PM,-0.07,-0.32,8.60,-0.02,0.02,0.01
8:01:53 PM,-0.03,-0.30,8.58,-0.01,-0.04,0.01
8:01:53 PM,0.27,-0.28,8.45,0.02,-0.12,0.01
8:01:53 PM,0.11,-0.35,8.62,0.02,-0.03,0.01
8:01:53 PM,0.38,-0.40,8.63,0.01,-0.10,0.01
8:01:53 PM,0.11,-0.39,8.71,0.03,-0.01,0.01
8:01:54 PM,-0.02,-0.34,8.65,0.02,0.07,0.01
8:01:54 PM,-0.14,-0.43,8.85,-0.01,-0.05,0.01
8:01:54 PM,0.23,-0.43,8.66,0.00,-0.03,0.01
8:01:54 PM,-0.01,-0.30,8.67,0.06,0.04,0.01
8:01:54 PM,0.06,-0.30,8.62,0.01,-0.02,0.01
8:01:54 PM,0.31,-0.41,8.75,0.02,-0.05,0.01
8:01:54 PM,0.20,-0.34,8.66,0.01,0.00,0.01
8:01:54 PM,0.19,-0.28,8.48,0.03,-0.01,0.01
8:01:54 PM,0.26,-0.36,8.60,0.01,-0.04,0.01
8:01:55 PM,0.38,-0.39,8.56,0.02,0.04,0.01
8:01:55 PM,0.06,-0.25,8.51,-0.02,0.03,0.01
8:01:55 PM,0.26,-0.42,8.70,-0.04,-0.02,0.01
8:01:55 PM,0.69,-0.56,8.73,0.06,-0.01,0.01
8:01:55 PM,0.07,-0.29,8.57,-0.00,0.11,0.01
8:01:55 PM,0.21,-0.34,8.54,-0.03,-0.08,0.01
8:01:55 PM,0.40,-0.46,8.85,-0.00,-0.02,0.01
8:01:55 PM,0.08,-0.35,8.63,0.02,0.09,0.01
8:01:56 PM,0.25,-0.30,8.44,-0.00,-0.01,0.01
8:01:56 PM,0.52,-0.42,8.59,-0.01,-0.12,0.01
8:01:56 PM,-0.05,-0.39,8.71,-0.00,-0.01,0.01
8:01:56 PM,0.11,-0.30,8.57,-0.03,-0.06,0.01
8:01:56 PM,0.30,-0.41,8.57,0.02,-0.05,0.01
8:01:56 PM,-0.02,-0.41,8.78,0.03,0.01,0.01
8:01:56 PM,0.08,-0.38,8.61,0.01,-0.00,0.01
8:01:56 PM,0.24,-0.39,8.62,-0.02,-0.10,0.01
8:01:56 PM,0.01,-0.32,8.52,-0.02,-0.08,0.01
8:01:56 PM,0.33,-0.48,8.78,0.01,-0.12,0.01
8:01:56 PM,0.06,-0.40,8.86,0.06,0.01,0.01
8:01:57 PM,0.19,-0.47,8.83,0.05,0.09,0.01
8:01:57 PM,0.22,-0.51,8.76,0.00,-0.01,0.01
8:01:57 PM,0.28,-0.41,8.56,0.01,0.02,0.01
8:01:57 PM,0.30,-0.54,8.79,-0.01,-0.09,0.01
8:01:57 PM,0.29,-0.44,8.58,0.01,-0.01,0.01
8:01:57 PM,0.19,-0.36,8.68,0.02,-0.01,0.01
8:01:58 PM,0.09,-0.36,8.77,0.02,-0.03,0.01
8:02:00 PM,0.09,-0.35,8.62,0.05,0.03,0.01
8:02:00 PM,0.06,-0.36,8.65,-0.01,-0.04,0.01
8:02:00 PM,0.26,-0.47,8.65,-0.02,0.04,0.01
8:02:00 PM,0.29,-0.33,8.54,0.02,-0.10,0.01
8:02:01 PM,0.00,-0.51,8.76,0.02,-0.09,0.01
8:02:01 PM,0.05,-0.32,8.58,0.01,-0.05,0.01
8:02:01 PM,0.25,-0.41,8.76,0.02,0.02,0.01
8:02:01 PM,0.07,-0.29,8.54,0.00,-0.01,0.01
8:02:01 PM,0.06,-0.31,8.51,0.01,-0.10,0.01
8:02:01 PM,0.25,-0.34,8.55,-0.00,0.04,0.01
8:02:01 PM,0.32,-0.35,8.68,0.06,0.03,0.01
8:02:01 PM,-0.01,-0.35,8.70,0.01,0.05,0.01
8:02:01 PM,0.04,-0.26,8.42,-0.00,0.04,0.01
8:02:01 PM,0.32,-0.37,8.61,-0.00,-0.02,0.01
8:02:01 PM,0.37,-0.36,8.55,0.02,-0.03,0.01
8:02:01 PM,0.52,-0.50,8.66,-0.01,-0.06,0.01
8:02:01 PM,0.29,-0.46,8.74,0.04,0.00,0.01
8:02:01 PM,0.27,-0.34,8.56,0.01,-0.09,0.01
8:02:02 PM,0.14,-0.39,8.65,-0.00,-0.04,0.01
8:02:02 PM,0.19,-0.32,8.58,-0.02,0.01,0.01
8:02:02 PM,0.07,-0.35,8.71,-0.01,-0.02,0.01
8:02:02 PM,0.15,-0.42,8.67,0.02,-0.09,0.01
8:02:02 PM,0.26,-0.36,8.64,0.01,-0.01,0.01
8:02:02 PM,0.18,-0.34,8.52,0.02,-0.01,0.01
8:02:02 PM,0.11,-0.21,8.42,-0.02,-0.08,0.01
8:02:02 PM,0.44,-0.47,8.80,0.00,-0.07,0.01
8:02:02 PM,0.07,-0.31,8.46,-0.00,0.01,0.01
8:02:03 PM,0.17,-0.48,8.82,0.00,-0.06,0.01
8:02:03 PM,0.22,-0.49,8.83,-0.00,-0.03,0.01
8:02:03 PM,0.06,-0.27,8.58,0.03,-0.03,0.01
8:02:03 PM,0.04,-0.29,8.66,-0.04,-0.07,0.01
8:02:03 PM,0.37,-0.46,8.76,0.00,-0.03,0.01
8:02:03 PM,-0.13,-0.32,8.72,0.02,0.05,0.01
8:02:03 PM,0.13,-0.41,8.71,0.05,0.11,0.01
8:02:03 PM,0.01,-0.37,8.73,0.01,0.00,0.01
8:02:03 PM,0.15,-0.43,8.78,0.01,0.01,0.01
8:02:03 PM,0.32,-0.33,8.71,0.02,-0.03,0.01
8:02:04 PM,0.03,-0.43,8.88,-0.00,-0.03,0.01
8:02:04 PM,0.31,-0.33,8.50,0.05,0.07,0.01
8:02:04 PM,0.05,-0.25,8.56,0.03,0.01,0.01
8:02:04 PM,-0.04,-0.31,8.65,0.01,-0.02,0.01
8:02:04 PM,0.24,-0.30,8.62,-0.01,-0.08,0.01
8:02:04 PM,-0.01,-0.28,8.67,0.02,-0.02,0.01
8:02:04 PM,0.34,-0.24,8.54,0.03,-0.02,0.01
8:02:04 PM,0.05,-0.36,8.72,-0.01,-0.08,0.01
8:02:04 PM,0.40,-0.40,8.70,-0.01,-0.06,0.01
8:02:05 PM,0.25,-0.39,8.72,0.00,0.04,0.01
8:02:05 PM,-0.07,-0.34,8.69,0.02,-0.01,0.01
8:02:05 PM,-0.05,-0.36,8.61,0.00,-0.10,0.01
8:02:05 PM,0.07,-0.50,8.91,0.01,0.02,0.01
8:02:05 PM,-0.06,-0.34,8.69,0.06,0.07,0.01
8:02:05 PM,-0.04,-0.44,8.83,0.05,-0.01,0.01
8:02:05 PM,0.12,-0.46,8.77,0.03,-0.02,0.01
8:02:05 PM,0.30,-0.38,8.68,0.00,-0.01,0.01
8:02:05 PM,0.17,-0.29,8.59,0.02,-0.03,0.01
8:02:05 PM,0.23,-0.34,8.60,0.04,-0.04,0.01
8:02:06 PM,0.27,-0.31,8.54,0.00,-0.07,0.01
8:02:06 PM,0.17,-0.31,8.53,0.00,0.03,0.01
8:02:06 PM,0.19,-0.46,8.71,-0.00,-0.01,0.01
8:02:06 PM,0.16,-0.35,8.69,-0.02,-0.10,0.01
8:02:06 PM,0.30,-0.40,8.67,-0.01,-0.07,0.01
8:02:06 PM,0.17,-0.32,8.55,0.02,-0.08,0.01
8:02:06 PM,0.26,-0.31,8.54,-0.00,-0.01,0.01
8:02:06 PM,0.07,-0.34,8.74,0.01,-0.02,0.01
8:02:06 PM,-0.12,-0.44,8.78,-0.01,-0.02,0.01
8:02:07 PM,0.04,-0.31,8.60,0.02,0.00,0.01
8:02:07 PM,0.11,-0.37,8.68,0.02,0.00,0.01
8:02:07 PM,0.09,-0.36,8.58,0.01,-0.04,0.01
8:02:07 PM,0.11,-0.32,8.61,0.06,0.06,0.01
8:02:07 PM,-0.02,-0.23,8.37,-0.00,-0.07,0.01
8:02:07 PM,0.41,-0.39,8.71,0.02,-0.01,0.01
8:02:07 PM,0.21,-0.36,8.75,0.03,0.10,0.01
8:02:07 PM,0.12,-0.25,8.59,0.03,0.03,0.01
8:02:07 PM,0.01,-0.30,8.63,-0.01,-0.04,0.01
8:02:07 PM,0.28,-0.35,8.65,0.00,-0.02,0.01
8:02:08 PM,0.04,-0.31,8.65,0.01,0.05,0.01
8:02:08 PM,0.05,-0.39,8.61,0.04,-0.01,0.01
8:02:08 PM,0.16,-0.28,8.51,0.03,0.01,0.01
8:02:08 PM,0.14,-0.29,8.57,-0.01,-0.06,0.01
8:02:08 PM,0.25,-0.38,8.67,-0.02,-0.06,0.01
8:02:08 PM,0.34,-0.32,8.67,0.03,0.02,0.01
8:02:08 PM,0.22,-0.26,8.42,0.01,0.03,0.01
8:02:08 PM,0.10,-0.39,8.76,0.03,-0.07,0.01
8:02:08 PM,0.10,-0.34,8.79,-0.03,-0.02,0.01
8:02:09 PM,0.30,-0.27,8.40,0.01,0.00,0.01
8:02:09 PM,0.50,-0.28,8.41,0.01,-0.04,0.01
8:02:09 PM,0.32,-0.33,8.69,0.02,-0.01,0.01
8:02:09 PM,0.14,-0.40,8.72,-0.02,-0.05,0.01
8:02:09 PM,0.23,-0.35,8.79,-0.00,-0.01,0.01
8:02:09 PM,0.06,-0.30,8.71,0.05,-0.01,0.01
8:02:09 PM,-0.05,-0.28,8.58,0.02,-0.03,0.01
8:02:09 PM,0.53,-0.31,8.57,0.02,-0.09,0.01
8:02:09 PM,0.27,-0.35,8.72,0.01,0.00,0.01
8:02:09 PM,0.13,-0.39,8.79,0.07,-0.03,0.01
8:02:10 PM,0.27,-0.57,9.03,0.03,0.01,0.01
8:02:10 PM,0.10,-0.36,8.64,-0.06,0.06,0.01
8:02:10 PM,0.51,-0.38,8.44,0.00,-0.13,0.01
8:02:10 PM,0.34,-0.36,8.63,-0.01,-0.04,0.01
8:02:10 PM,0.12,-0.35,8.63,-0.01,-0.00,0.01
8:02:10 PM,0.14,-0.36,8.62,-0.00,-0.09,0.01
8:02:10 PM,0.20,-0.57,8.94,-0.03,0.02,0.01
8:02:10 PM,-0.03,-0.29,8.57,0.04,0.07,0.01
8:02:10 PM,0.10,-0.38,8.51,0.00,-0.07,0.01
8:02:11 PM,0.18,-0.47,8.77,-0.01,-0.11,0.01
8:02:11 PM,0.16,-0.37,8.70,0.02,-0.01,0.01
8:02:11 PM,-0.13,-0.23,8.71,0.03,0.03,0.01
8:02:11 PM,-0.10,-0.28,8.69,-0.02,-0.08,0.01
8:02:11 PM,0.00,-0.40,8.71,-0.01,-0.07,0.01
8:02:11 PM,0.07,-0.32,8.67,-0.01,-0.02,0.01
8:02:11 PM,0.03,-0.37,8.72,0.00,-0.01,0.01
8:02:11 PM,-0.10,-0.27,8.80,0.07,-0.01,0.01
8:02:11 PM,0.24,-0.40,8.73,0.04,0.01,0.01
8:02:11 PM,-0.03,-0.40,8.77,-0.07,0.00,0.01
8:02:12 PM,0.94,-0.76,8.98,-0.02,-0.05,0.01
8:02:12 PM,0.31,-0.38,8.40,0.01,-0.00,0.01
8:02:12 PM,0.73,-0.29,8.34,0.01,-0.04,0.01
8:02:12 PM,0.14,-0.31,8.71,0.06,-0.02,0.01
8:02:12 PM,0.55,-0.42,8.49,0.00,-0.11,0.01
8:02:12 PM,0.02,-0.35,8.75,0.03,0.03,0.01
8:02:12 PM,0.16,-0.29,8.56,0.04,0.01,0.01
8:02:12 PM,0.18,-0.38,8.73,-0.02,-0.09,0.01
8:02:12 PM,0.13,-0.44,8.74,-0.03,-0.03,0.01
8:02:13 PM,0.24,-0.35,8.70,-0.01,0.01,0.01
8:02:13 PM,0.10,-0.30,8.64,0.03,0.02,0.01
8:02:13 PM,0.03,-0.34,8.65,-0.02,-0.00,0.01
8:02:13 PM,0.14,-0.37,8.68,0.01,-0.02,0.01
8:02:13 PM,0.26,-0.32,8.47,0.03,0.04,0.01
8:02:13 PM,0.21,-0.37,8.66,0.04,-0.02,0.01
8:02:13 PM,-0.02,-0.26,8.47,-0.01,-0.09,0.01
8:02:13 PM,0.32,-0.34,8.56,-0.05,-0.11,0.01
8:02:13 PM,0.26,-0.38,8.68,0.00,-0.04,0.01
8:02:14 PM,0.12,-0.41,8.74,0.04,0.04,0.01
8:02:14 PM,-0.20,-0.26,8.69,-0.00,-0.05,0.01
8:02:14 PM,0.20,-0.33,8.61,-0.04,-0.11,0.01
8:02:14 PM,0.26,-0.34,8.55,0.01,-0.06,0.01
8:02:14 PM,0.09,-0.37,8.46,0.00,-0.04,0.01
8:02:14 PM,0.19,-0.28,8.42,0.02,-0.08,0.01
8:02:14 PM,-0.01,-0.25,8.46,0.02,-0.02,0.01
8:02:14 PM,-0.19,-0.41,8.68,-0.04,-0.07,0.01
8:02:14 PM,-0.04,-0.31,8.55,-0.03,0.00,0.01
8:02:14 PM,-0.02,-0.35,8.69,-0.01,0.03,0.01
8:02:15 PM,0.21,-0.41,8.74,0.02,-0.02,0.01
8:02:15 PM,-0.03,-0.39,8.69,0.00,0.06,0.01
8:02:15 PM,-0.08,-0.28,8.52,-0.00,-0.02,0.01
8:02:15 PM,0.17,-0.34,8.66,0.01,-0.00,0.01
8:02:15 PM,-0.02,-0.27,8.59,0.03,0.09,0.01
8:02:15 PM,-0.19,-0.32,8.72,0.01,0.07,0.01
8:02:15 PM,0.22,-0.44,8.66,0.00,-0.03,0.01
8:02:15 PM,0.27,-0.42,8.74,0.02,-0.01,0.01
8:02:15 PM,0.07,-0.36,8.68,0.02,0.07,0.01
8:02:16 PM,-0.21,-0.34,8.70,-0.00,0.09,0.01
8:02:16 PM,-0.16,-0.39,8.71,-0.00,-0.03,0.01
8:02:16 PM,0.04,-0.44,8.80,-0.02,0.00,0.01
8:02:16 PM,0.10,-0.40,8.54,-0.01,-0.02,0.01
8:02:16 PM,0.32,-0.51,8.76,-0.00,-0.02,0.01
8:02:16 PM,0.08,-0.54,8.81,0.04,-0.02,0.01
8:02:16 PM,0.19,-0.36,8.48,-0.03,-0.03,0.01
8:02:16 PM,0.32,-0.30,8.45,0.09,-0.04,0.01
8:02:16 PM,0.25,-0.35,8.36,-0.00,0.01,0.01
8:02:16 PM,0.10,-0.35,8.60,-0.03,0.02,0.01
8:02:17 PM,0.24,-0.42,8.54,-0.03,-0.12,0.01
8:02:17 PM,0.30,-0.51,8.84,-0.02,-0.04,0.01
8:02:17 PM,-0.09,-0.37,8.71,0.01,0.09,0.01
8:02:17 PM,-0.25,-0.28,8.44,0.04,0.11,0.01
8:02:17 PM,-0.05,-0.40,8.68,0.02,0.02,0.01
8:02:17 PM,0.22,-0.51,8.63,0.03,-0.08,0.01
8:02:17 PM,0.25,-0.40,8.59,0.02,-0.06,0.01
8:02:17 PM,0.01,-0.49,8.71,0.02,0.04,0.01
8:02:17 PM,-0.50,-0.13,8.56,0.08,0.06,0.01
8:02:18 PM,-0.18,-0.37,8.63,-0.01,-0.07,0.01
8:02:18 PM,0.30,-0.58,8.84,0.00,-0.07,0.01
8:02:18 PM,0.23,-0.42,8.64,0.01,0.04,0.01
8:02:18 PM,-0.31,-0.33,8.70,0.01,0.03,0.01
8:02:18 PM,-0.14,-0.33,8.54,-0.00,-0.04,0.01
8:02:18 PM,-0.00,-0.48,8.59,-0.00,-0.00,0.01
8:02:18 PM,0.12,-0.44,8.56,-0.00,0.01,0.01
8:02:18 PM,0.20,-0.36,8.49,0.01,0.01,0.01
8:02:18 PM,-0.07,-0.47,8.66,-0.00,-0.02,0.01
8:02:18 PM,-0.00,-0.42,8.52,-0.01,-0.05,0.01
8:02:19 PM,-0.17,-0.37,8.54,0.03,0.03,0.01
8:02:19 PM,0.04,-0.45,8.61,-0.02,-0.10,0.01
8:02:19 PM,0.31,-0.46,8.53,0.01,-0.05,0.01
8:02:19 PM,0.12,-0.52,8.68,-0.01,-0.03,0.01
8:02:19 PM,-0.03,-0.48,8.69,-0.01,0.05,0.01
8:02:19 PM,-0.16,-0.46,8.64,0.02,0.03,0.01
8:02:19 PM,0.09,-0.47,8.52,-0.02,-0.06,0.01
8:02:19 PM,0.47,-0.60,8.79,0.03,0.02,0.01
8:02:19 PM,-0.22,-0.35,8.42,-0.03,0.04,0.01
8:02:20 PM,-0.21,-0.33,8.29,0.09,0.11,0.01
8:02:20 PM,-0.24,-0.37,8.41,0.00,-0.00,0.01
8:02:20 PM,0.28,-0.67,8.88,0.02,0.01,0.01
8:02:20 PM,0.04,-0.56,8.72,0.02,0.04,0.01
8:02:20 PM,-0.06,-0.54,8.73,0.05,0.03,0.01
8:02:20 PM,-0.22,-0.43,8.63,0.04,0.03,0.01
8:02:20 PM,0.08,-0.46,8.62,-0.02,-0.01,0.01
8:02:20 PM,0.16,-0.45,8.55,-0.01,-0.03,0.01
8:02:20 PM,0.37,-0.46,8.60,0.02,0.02,0.01
8:02:20 PM,0.10,-0.45,8.70,0.05,0.04,0.01
8:02:21 PM,-0.18,-0.42,8.64,-0.00,0.07,0.01
8:02:21 PM,0.05,-0.52,8.64,-0.00,0.00,0.01
8:02:21 PM,0.01,-0.34,8.43,0.05,-0.01,0.01
8:02:21 PM,0.08,-0.43,8.48,0.04,-0.06,0.01
8:02:21 PM,0.08,-0.46,8.63,0.04,-0.07,0.01
8:02:21 PM,0.00,-0.41,8.59,0.04,0.08,0.01
8:02:21 PM,-0.10,-0.55,8.74,0.02,0.00,0.01
8:02:21 PM,-0.03,-0.50,8.59,-0.00,-0.01,0.01
8:02:21 PM,0.52,-0.60,8.60,0.02,-0.04,0.01
8:02:22 PM,-0.13,-0.37,8.55,0.02,0.07,0.01
8:02:22 PM,-0.02,-0.44,8.72,-0.02,-0.07,0.01
8:02:22 PM,0.13,-0.52,8.63,-0.01,-0.08,0.01
8:02:22 PM,0.28,-0.58,8.76,0.02,-0.05,0.01
8:02:22 PM,-0.12,-0.38,8.66,-0.01,-0.00,0.01
8:02:22 PM,-0.19,-0.38,8.41,0.01,-0.01,0.01
8:02:22 PM,0.13,-0.40,8.57,-0.01,-0.05,0.01
8:02:22 PM,0.24,-0.48,8.63,-0.01,-0.10,0.01
8:02:22 PM,0.43,-0.44,8.60,0.01,0.07,0.01
8:02:22 PM,-0.17,-0.29,8.60,0.05,0.02,0.01
8:02:23 PM,-0.11,-0.40,8.63,0.01,0.01,0.01
8:02:23 PM,0.06,-0.42,8.55,-0.00,-0.10,0.01
8:02:23 PM,0.11,-0.52,8.86,0.02,-0.06,0.01
8:02:23 PM,-0.12,-0.42,8.67,0.01,-0.07,0.01
8:02:23 PM,0.00,-0.48,8.86,0.01,-0.01,0.01
8:02:23 PM,0.01,-0.40,8.77,0.01,-0.04,0.01
8:02:23 PM,0.10,-0.40,8.65,0.03,-0.01,0.01
8:02:23 PM,-0.04,-0.37,8.60,0.01,-0.03,0.01
8:02:23 PM,0.01,-0.40,8.61,0.03,-0.01,0.01
8:02:24 PM,-0.11,-0.32,8.59,0.01,-0.00,0.01
8:02:24 PM,-0.18,-0.39,8.62,0.00,-0.01,0.01
8:02:24 PM,0.06,-0.39,8.51,-0.05,-0.06,0.01
8:02:24 PM,0.18,-0.44,8.65,0.01,0.01,0.01
8:02:24 PM,0.29,-0.41,8.62,0.01,0.00,0.01
8:02:24 PM,-0.10,-0.37,8.61,-0.02,0.02,0.01
8:02:24 PM,0.09,-0.40,8.68,0.02,-0.05,0.01
8:02:25 PM,-0.38,-0.35,8.52,0.01,-0.01,0.01
8:02:25 PM,0.10,-0.40,8.63,0.03,-0.02,0.01
8:02:25 PM,0.05,-0.37,8.54,0.05,-0.03,0.01
8:02:25 PM,-0.03,-0.41,8.66,0.05,-0.08,0.01
8:02:25 PM,0.24,-0.34,8.43,0.04,-0.05,0.01
8:02:25 PM,0.09,-0.33,8.49,0.01,0.02,0.01
8:02:25 PM,-0.20,-0.42,8.57,-0.01,-0.01,0.01
8:02:25 PM,0.34,-0.54,8.67,-0.03,-0.08,0.01
8:02:25 PM,0.06,-0.58,8.82,-0.00,0.01,0.01
8:02:25 PM,0.02,-0.52,8.67,-0.03,-0.07,0.01
8:02:25 PM,0.06,-0.46,8.62,0.02,-0.03,0.01
8:02:25 PM,0.02,-0.49,8.71,0.00,0.01,0.01
8:02:26 PM,0.04,-0.45,8.65,0.03,0.00,0.01
8:02:26 PM,-0.03,-0.57,8.78,0.03,-0.01,0.01
8:02:26 PM,-0.08,-0.57,8.95,0.00,0.01,0.01
8:02:26 PM,0.01,-0.46,8.67,0.04,-0.04,0.01
8:02:26 PM,0.01,-0.43,8.52,0.01,0.00,0.01
8:02:26 PM,0.26,-0.44,8.64,0.02,0.01,0.01
8:02:26 PM,-0.07,-0.41,8.68,0.03,0.01,0.01
8:02:26 PM,0.26,-0.49,8.68,0.00,-0.04,0.01
8:02:26 PM,0.09,-0.40,8.64,0.02,0.10,0.01
8:02:27 PM,-0.06,-0.31,8.39,-0.00,0.01,0.01
8:02:27 PM,0.19,-0.51,8.65,0.02,-0.09,0.01
8:02:27 PM,0.31,-0.57,8.80,0.00,0.01,0.01
8:02:27 PM,-0.02,-0.43,8.65,0.02,0.10,0.01
8:02:27 PM,-0.01,-0.47,8.62,0.03,0.03,0.01
8:02:27 PM,0.04,-0.34,8.41,0.03,0.01,0.01
8:02:27 PM,0.32,-0.44,8.53,0.01,-0.07,0.01
8:02:27 PM,-0.01,-0.53,8.82,0.02,0.01,0.01
8:02:27 PM,-0.17,-0.45,8.75,0.02,0.05,0.01
8:02:27 PM,-0.23,-0.53,8.77,0.04,0.01,0.01
8:02:28 PM,-0.10,-0.51,8.80,0.01,-0.08,0.01
8:02:28 PM,-0.03,-0.40,8.72,0.02,-0.02,0.01
8:02:28 PM,-0.12,-0.45,8.57,0.02,-0.02,0.01
8:02:28 PM,-0.15,-0.44,8.65,0.01,-0.03,0.01
8:02:28 PM,0.04,-0.36,8.52,-0.00,-0.02,0.01
8:02:28 PM,-0.01,-0.41,8.61,0.03,0.04,0.01
8:02:28 PM,-0.25,-0.40,8.66,0.03,-0.07,0.01
8:02:28 PM,0.05,-0.46,8.74,0.03,-0.07,0.01
8:02:28 PM,0.24,-0.54,8.75,0.03,-0.02,0.01
8:02:29 PM,0.12,-0.46,8.68,0.04,-0.04,0.01
8:02:29 PM,-0.18,-0.42,8.66,0.02,-0.04,0.01
8:02:29 PM,-0.18,-0.43,8.77,-0.01,-0.02,0.01
8:02:29 PM,0.14,-0.47,8.73,0.01,-0.08,0.01
8:02:29 PM,0.20,-0.45,8.66,-0.02,-0.02,0.01
8:02:29 PM,0.06,-0.46,8.61,-0.03,-0.02,0.01
8:02:29 PM,0.18,-0.46,8.67,0.02,-0.02,0.01
8:02:29 PM,-0.12,-0.44,8.67,0.05,0.03,0.01
8:02:29 PM,-0.02,-0.44,8.67,-0.01,-0.02,0.01
8:02:29 PM,0.23,-0.45,8.58,-0.02,-0.05,0.01
8:02:30 PM,0.31,-0.49,8.61,-0.02,-0.05,0.01
8:02:30 PM,0.03,-0.48,8.84,0.01,0.01,0.01
8:02:30 PM,0.03,-0.43,8.56,0.00,-0.01,0.01
8:02:30 PM,0.21,-0.49,8.65,0.00,-0.12,0.01
8:02:30 PM,0.29,-0.55,8.51,0.00,-0.09,0.01
8:02:30 PM,0.14,-0.50,8.69,-0.02,-0.10,0.01
8:02:30 PM,-0.00,-0.43,8.54,-0.01,-0.07,0.01
8:02:30 PM,0.39,-0.56,8.68,0.00,-0.09,0.01
8:02:30 PM,0.14,-0.45,8.52,0.03,-0.01,0.01
8:02:31 PM,-0.27,-0.39,8.60,0.03,0.01,0.01
8:02:31 PM,-0.18,-0.44,8.57,-0.03,-0.15,0.01
8:02:31 PM,-0.17,-0.53,8.75,-0.00,-0.12,0.01
8:02:31 PM,0.03,-0.50,8.69,-0.00,-0.06,0.01
8:02:31 PM,-0.06,-0.59,8.82,-0.02,-0.02,0.01
8:02:31 PM,-0.22,-0.46,8.64,0.01,-0.02,0.01
8:02:31 PM,-0.04,-0.40,8.51,0.00,-0.05,0.01
8:02:31 PM,-0.39,-0.34,8.58,0.00,0.01,0.01
8:02:31 PM,0.09,-0.40,8.43,0.02,-0.06,0.01
8:02:31 PM,0.12,-0.46,8.62,0.03,0.00,0.01
8:02:32 PM,0.07,-0.36,8.56,0.06,0.06,0.01
8:02:32 PM,-0.27,-0.29,8.59,0.01,-0.02,0.01
8:02:32 PM,0.25,-0.49,8.69,0.00,0.01,0.01
8:02:32 PM,0.04,-0.48,8.78,0.01,-0.00,0.01
8:02:32 PM,-0.10,-0.52,8.74,0.01,0.08,0.01
8:02:32 PM,0.14,-0.41,8.73,0.03,-0.09,0.01
8:02:32 PM,0.45,-0.64,8.85,0.00,-0.07,0.01
8:02:32 PM,0.49,-0.56,8.63,0.04,-0.06,0.01
8:02:32 PM,-0.02,-0.36,8.51,0.03,-0.04,0.01
8:02:33 PM,0.17,-0.51,8.80,-0.01,-0.08,0.01
8:02:33 PM,0.07,-0.61,8.71,0.02,0.02,0.01
8:02:33 PM,0.04,-0.42,8.55,0.01,-0.01,0.01
8:02:33 PM,-0.09,-0.38,8.55,0.00,0.01,0.01
8:02:33 PM,0.18,-0.48,8.65,-0.02,-0.14,0.01
8:02:33 PM,0.22,-0.56,8.75,-0.00,-0.01,0.01
8:02:33 PM,-0.37,-0.39,8.54,-0.00,-0.04,0.01
8:02:33 PM,0.10,-0.50,8.70,-0.02,-0.14,0.01
8:02:33 PM,0.24,-0.50,8.77,0.02,-0.02,0.01
8:02:33 PM,0.10,-0.36,8.56,0.01,0.02,0.01
8:02:34 PM,0.16,-0.34,8.55,-0.00,-0.03,0.01
8:02:34 PM,0.13,-0.38,8.60,0.03,-0.00,0.01
8:02:34 PM,-0.01,-0.50,8.76,0.01,-0.01,0.01
8:02:34 PM,0.03,-0.36,8.49,0.04,0.10,0.01
8:02:34 PM,0.04,-0.29,8.48,0.04,-0.06,0.01
8:02:34 PM,0.10,-0.38,8.66,0.01,-0.03,0.01
8:02:34 PM,0.18,-0.43,8.59,0.01,-0.02,0.01
8:02:34 PM,-0.17,-0.36,8.68,0.02,0.04,0.01
8:02:34 PM,0.04,-0.50,8.80,0.02,-0.07,0.01
8:02:35 PM,0.19,-0.50,8.71,0.03,-0.06,0.01
8:02:35 PM,-0.02,-0.47,8.74,0.00,-0.01,0.01
8:02:35 PM,0.22,-0.48,8.66,0.01,-0.02,0.01
8:02:35 PM,0.11,-0.40,8.72,0.02,0.05,0.01
8:02:35 PM,-0.13,-0.46,8.91,0.03,0.07,0.01
8:02:35 PM,-0.05,-0.44,8.60,0.04,0.10,0.01
8:02:35 PM,0.07,-0.50,8.63,0.01,-0.02,0.01
8:02:35 PM,0.15,-0.49,8.73,0.02,0.02,0.01
8:02:35 PM,-0.10,-0.51,8.67,0.02,-0.03,0.01
8:02:35 PM,0.12,-0.53,8.63,-0.06,-0.11,0.01
8:02:36 PM,0.29,-0.50,8.78,-0.02,-0.11,0.01
8:02:36 PM,0.28,-0.43,8.52,-0.00,0.00,0.01
8:02:36 PM,0.26,-0.44,8.70,0.02,0.04,0.01
8:02:36 PM,0.23,-0.47,8.71,0.01,-0.02,0.01
8:02:36 PM,0.17,-0.51,8.65,0.01,-0.02,0.01
8:02:36 PM,0.36,-0.49,8.68,-0.00,-0.06,0.01
8:02:36 PM,0.22,-0.43,8.65,-0.02,-0.06,0.01
8:02:36 PM,0.11,-0.43,8.58,0.02,0.01,0.01
8:02:36 PM,0.03,-0.51,8.75,0.01,-0.03,0.01
8:02:37 PM,0.20,-0.44,8.61,0.03,-0.02,0.01
8:02:37 PM,-0.05,-0.42,8.63,0.02,0.00,0.01
8:02:37 PM,0.02,-0.46,8.71,0.00,-0.04,0.01
8:02:37 PM,0.10,-0.47,8.65,-0.03,0.01,0.01
8:02:37 PM,0.32,-0.50,8.70,-0.03,-0.01,0.01
8:02:37 PM,0.20,-0.52,8.79,0.01,0.05,0.01
8:02:37 PM,0.06,-0.48,8.71,0.03,0.04,0.01
8:02:37 PM,-0.11,-0.43,8.72,0.03,-0.03,0.01
8:02:37 PM,0.19,-0.47,8.77,0.02,-0.05,0.01
8:02:37 PM,0.01,-0.36,8.62,0.02,0.01,0.01
8:02:38 PM,0.23,-0.31,8.45,-0.02,-0.07,0.01
8:02:38 PM,0.56,-0.43,8.63,0.03,-0.05,0.01
8:02:38 PM,0.36,-0.37,8.47,0.01,-0.01,0.01
8:02:38 PM,0.20,-0.40,8.63,0.03,0.03,0.01
8:02:38 PM,0.11,-0.35,8.51,-0.01,0.04,0.01
8:02:38 PM,0.34,-0.35,8.42,0.02,-0.00,0.01
8:02:38 PM,0.01,-0.41,8.66,0.02,0.04,0.01
8:02:38 PM,0.00,-0.50,8.96,0.00,-0.01,0.01
8:02:38 PM,0.01,-0.38,8.66,-0.03,-0.05,0.01
8:02:39 PM,0.17,-0.36,8.60,-0.00,0.00,0.01
8:02:39 PM,0.18,-0.44,8.71,-0.01,-0.06,0.01
8:02:39 PM,0.06,-0.41,8.71,0.00,-0.02,0.01
8:02:39 PM,-0.11,-0.35,8.70,0.04,0.03,0.01
8:02:39 PM,-0.07,-0.41,8.71,-0.03,-0.03,0.01
8:02:39 PM,0.18,-0.36,8.64,0.04,0.05,0.01
8:02:39 PM,-0.02,-0.34,8.58,0.03,0.02,0.01
8:02:39 PM,0.10,-0.35,8.53,-0.02,-0.04,0.01
8:02:39 PM,0.24,-0.49,8.66,-0.02,-0.02,0.01
8:02:40 PM,0.37,-0.37,8.62,0.04,0.02,0.01
8:02:40 PM,0.09,-0.33,8.54,0.03,-0.02,0.01
8:02:40 PM,0.35,-0.43,8.66,-0.00,-0.06,0.01
8:02:40 PM,0.10,-0.36,8.57,0.02,-0.01,0.01
8:02:40 PM,0.30,-0.37,8.59,0.00,-0.02,0.01
8:02:40 PM,0.03,-0.30,8.61,0.03,0.05,0.01
8:02:40 PM,-0.12,-0.38,8.70,0.04,-0.04,0.01
8:02:40 PM,0.07,-0.44,8.85,0.01,-0.09,0.01
8:02:40 PM,-0.03,-0.46,8.89,0.04,-0.00,0.01
8:02:40 PM,0.06,-0.33,8.69,0.01,-0.09,0.01
8:02:41 PM,0.32,-0.42,8.68,0.02,0.03,0.01
8:02:41 PM,-0.06,-0.37,8.70,0.03,-0.04,0.01
8:02:41 PM,0.23,-0.45,8.68,-0.01,-0.07,0.01
8:02:41 PM,0.01,-0.36,8.60,0.03,0.03,0.01
8:02:41 PM,0.16,-0.37,8.71,0.03,-0.02,0.01
8:02:41 PM,0.11,-0.37,8.68,0.02,-0.03,0.01
8:02:41 PM,-0.01,-0.37,8.60,-0.00,-0.01,0.01
8:02:41 PM,0.14,-0.36,8.62,0.02,-0.07,0.01
8:02:41 PM,-0.00,-0.37,8.63,0.02,0.01,0.01
8:02:42 PM,-0.07,-0.37,8.67,0.01,-0.02,0.01
8:02:42 PM,0.23,-0.38,8.58,0.01,-0.06,0.01
8:02:42 PM,0.30,-0.31,8.55,0.02,0.00,0.01
8:02:42 PM,-0.04,-0.33,8.66,0.03,-0.01,0.01
8:02:42 PM,0.20,-0.42,8.76,0.00,-0.10,0.01
8:02:42 PM,0.10,-0.36,8.66,0.04,-0.03,0.01
8:02:42 PM,0.13,-0.30,8.56,0.05,-0.04,0.01
8:02:42 PM,0.01,-0.51,8.92,0.07,-0.06,0.01
8:02:42 PM,-0.01,-0.37,8.66,0.06,-0.04,0.01
8:02:42 PM,0.08,-0.38,8.62,0.00,-0.00,0.01
8:02:43 PM,0.21,-0.24,8.49,0.00,-0.02,0.01
8:02:43 PM,0.24,-0.43,8.74,-0.01,-0.05,0.01
8:02:43 PM,0.16,-0.28,8.50,-0.02,-0.02,0.01
8:02:43 PM,0.37,-0.25,8.39,-0.03,-0.02,0.01
8:02:43 PM,0.07,-0.42,8.72,-0.02,-0.01,0.01
8:02:43 PM,0.01,-0.41,8.67,-0.02,0.02,0.01
8:02:43 PM,0.21,-0.36,8.70,-0.01,-0.05,0.01
8:02:43 PM,0.20,-0.40,8.57,0.03,-0.06,0.01
8:02:43 PM,0.25,-0.32,8.53,0.01,-0.03,0.01
8:02:44 PM,0.26,-0.34,8.56,0.03,0.02,0.01
8:02:44 PM,-0.00,-0.34,8.58,0.02,-0.05,0.01
8:02:44 PM,0.11,-0.36,8.67,0.02,-0.06,0.01
8:02:44 PM,0.29,-0.39,8.77,0.02,-0.06,0.01
8:02:44 PM,-0.08,-0.32,8.70,0.03,-0.00,0.01
8:02:44 PM,0.32,-0.36,8.65,0.01,-0.04,0.01
8:02:44 PM,-0.03,-0.28,8.60,0.06,0.03,0.01
8:02:44 PM,0.01,-0.32,8.66,0.01,-0.01,0.01
8:02:44 PM,-0.04,-0.35,8.63,-0.02,-0.05,0.01
8:02:44 PM,0.22,-0.37,8.55,0.02,-0.03,0.01
8:02:45 PM,0.12,-0.35,8.57,0.02,0.03,0.01
8:02:45 PM,0.05,-0.34,8.63,0.03,0.03,0.01
8:02:45 PM,0.08,-0.31,8.56,0.01,-0.05,0.01
8:02:45 PM,0.20,-0.34,8.53,-0.01,0.03,0.01
8:02:45 PM,-0.85,-0.19,8.62,-0.01,-0.03,0.01
8:02:45 PM,-0.14,-0.34,8.58,-0.00,-0.03,0.01
8:02:45 PM,0.17,-0.33,8.70,0.01,-0.04,0.01
8:02:45 PM,-0.00,-0.42,8.80,0.02,0.01,0.01
8:02:45 PM,-0.05,-0.19,8.58,0.03,-0.03,0.01
8:02:46 PM,0.08,-0.31,8.59,0.00,-0.00,0.01
8:02:46 PM,-0.15,-0.30,8.62,0.01,-0.01,0.01
8:02:46 PM,-0.14,-0.17,8.42,0.04,0.09,0.01
8:02:46 PM,0.11,-0.36,8.70,-0.00,-0.08,0.01
8:02:46 PM,0.26,-0.53,8.45,-0.02,-0.21,0.01
8:02:46 PM,-0.20,-0.25,8.89,0.02,0.05,0.01
8:02:46 PM,-0.56,-0.09,8.65,0.03,0.08,0.01
8:02:46 PM,-0.18,-0.28,8.82,0.03,-0.04,0.01
8:02:46 PM,-0.28,-0.22,8.56,0.02,-0.01,0.01
8:02:46 PM,-0.18,-0.22,8.67,0.03,0.10,0.01
8:02:47 PM,-0.30,-0.13,8.51,0.02,-0.02,0.01
8:02:47 PM,-0.11,-0.15,8.59,0.05,-0.04,0.01
8:02:47 PM,-0.21,-0.18,8.57,0.00,-0.01,0.01
8:02:47 PM,-0.25,-0.30,8.75,-0.02,-0.03,0.01
8:02:47 PM,-0.53,-0.07,8.50,0.02,-0.01,0.01
8:02:47 PM,-0.46,-0.16,8.56,-0.03,0.01,0.01
8:02:47 PM,-0.05,-0.27,8.72,-0.04,-0.02,0.01
8:02:47 PM,-0.06,-0.23,8.73,-0.00,0.03,0.01
8:02:47 PM,-0.34,-0.18,8.66,-0.02,0.01,0.01
8:02:48 PM,-0.34,-0.34,8.49,-0.02,-0.17,0.01
8:02:48 PM,0.02,-0.20,8.44,0.05,-0.02,0.01
8:02:48 PM,-0.31,-0.32,8.71,0.01,0.03,0.01
8:02:48 PM,0.22,-0.39,8.74,-0.02,-0.13,0.01
8:02:48 PM,-0.14,-0.39,8.69,0.01,-0.03,0.01
8:02:48 PM,0.12,-0.38,8.77,0.03,-0.06,0.01
8:02:48 PM,-0.12,-0.13,8.63,0.03,0.01,0.01
8:02:48 PM,-0.14,-0.23,8.60,0.03,-0.01,0.01
8:02:48 PM,0.04,-0.28,8.68,0.05,-0.07,0.01
8:02:48 PM,0.03,-0.30,8.63,0.05,0.01,0.01
8:02:49 PM,0.28,-0.32,8.76,0.01,-0.02,0.01
8:02:49 PM,-0.09,-0.25,8.64,0.01,-0.02,0.01
8:02:49 PM,-0.01,-0.26,8.69,-0.01,0.01,0.01
8:02:49 PM,0.15,-0.34,8.73,0.04,-0.06,0.01
8:02:49 PM,-0.06,-0.15,8.45,0.02,0.02,0.01
8:02:49 PM,0.20,-0.20,8.44,0.04,0.01,0.01
8:02:49 PM,-0.23,-0.13,8.53,0.06,0.04,0.01
8:02:49 PM,0.47,-0.38,8.67,0.01,-0.03,0.01
8:02:49 PM,0.01,-0.32,8.76,0.02,0.03,0.01
8:02:50 PM,-0.07,-0.40,8.84,0.01,0.03,0.01
8:02:50 PM,-0.09,-0.21,8.59,0.03,-0.00,0.01
8:02:50 PM,0.18,-0.35,8.82,0.03,-0.03,0.01
8:02:50 PM,-0.23,-0.33,8.81,-0.00,0.01,0.01
8:02:50 PM,-0.09,-0.31,8.74,0.00,0.01,0.01
8:02:50 PM,-0.09,-0.26,8.64,0.00,-0.08,0.01
8:02:50 PM,0.15,-0.30,8.60,0.02,0.02,0.01
8:02:50 PM,0.09,-0.23,8.58,0.00,-0.03,0.01
8:02:50 PM,0.10,-0.29,8.70,-0.02,-0.06,0.01
8:02:50 PM,0.11,-0.35,8.74,-0.01,0.01,0.01
8:02:51 PM,0.11,-0.38,8.78,0.01,-0.01,0.01
8:02:51 PM,0.12,-0.33,8.60,-0.01,-0.10,0.01
8:02:51 PM,0.11,-0.30,8.62,0.00,0.02,0.01
8:02:51 PM,-0.22,-0.13,8.42,0.03,-0.01,0.01
8:02:51 PM,0.39,-0.47,8.73,-0.08,-0.16,0.01
8:02:51 PM,0.34,-0.30,8.56,0.04,-0.00,0.01
8:02:51 PM,-0.32,-0.19,8.60,0.01,-0.07,0.01
8:02:51 PM,0.02,-0.38,8.77,-0.01,-0.05,0.01
8:02:51 PM,-0.19,-0.21,8.62,0.02,0.00,0.01
8:02:52 PM,0.21,-0.31,8.58,0.00,-0.03,0.01
8:02:52 PM,-0.16,-0.19,8.54,0.05,0.11,0.01
8:02:52 PM,0.01,-0.28,8.72,0.01,-0.04,0.01
8:02:52 PM,-0.44,-0.29,8.72,0.00,0.03,0.01
8:02:52 PM,-0.23,-0.21,8.66,0.02,-0.06,0.01
8:02:52 PM,-0.04,-0.29,8.59,0.00,-0.03,0.01
8:02:52 PM,0.22,-0.26,8.61,-0.01,-0.06,0.01
8:02:52 PM,0.03,-0.15,8.38,0.02,0.04,0.01
8:02:52 PM,0.11,-0.43,8.68,0.02,-0.01,0.01
8:02:53 PM,0.38,-0.44,8.77,0.01,0.01,0.01
8:02:53 PM,0.19,-0.35,8.63,0.02,-0.07,0.01
8:02:53 PM,0.07,-0.33,8.77,0.01,0.10,0.01
8:02:53 PM,0.14,-0.36,8.64,-0.04,-0.12,0.01
8:02:53 PM,-0.00,-0.33,8.69,-0.00,0.00,0.01
8:02:53 PM,-0.02,-0.34,8.66,-0.01,0.03,0.01
8:02:53 PM,0.31,-0.34,8.48,0.01,-0.03,0.01
8:02:53 PM,0.24,-0.31,8.41,0.03,0.04,0.01
8:02:53 PM,0.17,-0.43,8.66,0.02,-0.04,0.01
8:02:53 PM,0.15,-0.31,8.65,0.01,0.09,0.01
8:02:54 PM,-0.13,-0.37,8.75,0.03,-0.03,0.01
8:02:54 PM,-0.18,-0.43,8.73,0.00,-0.06,0.01
8:02:54 PM,0.24,-0.54,8.89,0.03,0.03,0.01
8:02:54 PM,-0.02,-0.36,8.54,-0.02,-0.04,0.01
8:02:54 PM,0.39,-0.44,8.63,-0.01,-0.10,0.01
8:02:54 PM,-0.43,-0.30,8.63,-0.03,-0.05,0.01
8:02:54 PM,0.11,-0.43,8.68,-0.01,-0.12,0.01
8:02:54 PM,-0.22,-0.34,8.64,0.02,0.02,0.01
8:02:54 PM,-0.05,-0.46,8.75,0.01,-0.06,0.01
8:02:55 PM,-0.12,-0.35,8.68,-0.01,0.03,0.01
8:02:55 PM,0.10,-0.36,8.55,-0.00,-0.04,0.01
8:02:55 PM,0.18,-0.41,8.61,0.02,0.01,0.01
8:02:55 PM,-0.04,-0.38,8.62,-0.01,-0.05,0.01
8:02:55 PM,0.25,-0.43,8.74,-0.01,-0.14,0.01
8:02:55 PM,-0.10,-0.40,8.70,-0.03,0.01,0.01
8:02:55 PM,-0.04,-0.45,8.77,-0.02,-0.03,0.01
8:02:55 PM,-0.15,-0.32,8.65,0.04,0.08,0.01
8:02:55 PM,-0.28,-0.33,8.69,-0.00,-0.04,0.01
8:02:55 PM,-0.11,-0.42,8.77,0.04,-0.01,0.01
8:02:56 PM,-0.10,-0.32,8.60,0.02,-0.09,0.01
8:02:56 PM,-0.03,-0.34,8.70,0.05,0.02,0.01
8:02:56 PM,0.05,-0.39,8.71,0.02,-0.07,0.01
8:02:56 PM,0.07,-0.30,8.51,0.02,-0.01,0.01
8:02:56 PM,-0.00,-0.31,8.62,0.04,-0.02,0.01
8:02:56 PM,-0.02,-0.32,8.62,0.01,0.06,0.01
8:02:56 PM,0.22,-0.31,8.50,0.00,-0.01,0.01
8:02:56 PM,0.21,-0.51,8.78,0.03,-0.00,0.01
8:02:56 PM,0.10,-0.42,8.71,0.02,0.05,0.01
8:02:57 PM,-0.08,-0.36,8.62,-0.00,-0.05,0.01
8:02:57 PM,0.21,-0.41,8.65,0.02,-0.08,0.01
8:02:57 PM,0.36,-0.28,8.80,0.05,0.05,0.01
8:02:57 PM,0.01,-0.32,8.31,-0.02,-0.14,0.01
8:02:57 PM,0.13,-0.38,8.55,0.02,-0.04,0.01
8:02:57 PM,0.28,-0.35,8.52,0.04,0.02,0.01
8:02:57 PM,0.20,-0.45,8.62,-0.03,-0.08,0.01
8:02:57 PM,-0.00,-0.34,8.66,-0.00,0.02,0.01
8:02:57 PM,-0.11,-0.34,8.66,-0.01,0.03,0.01
8:02:57 PM,-0.27,-0.28,8.54,-0.01,0.01,0.01
8:02:58 PM,0.20,-0.37,8.68,0.00,0.02,0.01
8:02:58 PM,0.13,-0.40,8.62,0.01,-0.01,0.01
8:02:58 PM,-0.14,-0.28,8.49,-0.03,-0.01,0.01
8:02:58 PM,0.22,-0.38,8.57,-0.00,-0.02,0.01
8:02:58 PM,0.36,-0.38,8.55,-0.00,-0.06,0.01
8:02:58 PM,-0.21,-0.31,8.55,0.03,0.04,0.01
8:02:58 PM,0.01,-0.42,8.71,0.01,0.03,0.01
8:02:58 PM,-0.11,-0.35,8.66,0.01,0.02,0.01
8:02:58 PM,0.09,-0.40,8.65,0.00,-0.04,0.01
8:02:59 PM,-0.02,-0.40,8.78,-0.01,0.06,0.01
8:02:59 PM,-0.09,-0.32,8.56,0.01,-0.05,0.01
8:02:59 PM,0.03,-0.35,8.60,0.03,0.07,0.01
8:02:59 PM,0.29,-0.47,8.77,0.02,-0.05,0.01
8:02:59 PM,-0.07,-0.40,8.72,0.00,0.03,0.01
8:02:59 PM,0.25,-0.54,8.85,0.01,-0.02,0.01
8:02:59 PM,-0.12,-0.34,8.69,0.01,0.04,0.01
8:02:59 PM,0.08,-0.42,8.63,-0.01,-0.10,0.01
8:02:59 PM,-0.05,-0.38,8.65,-0.00,-0.01,0.01
8:02:59 PM,0.23,-0.47,8.62,0.01,-0.01,0.01
8:03:00 PM,0.23,-0.42,8.79,0.02,-0.01,0.01
8:03:00 PM,0.07,-0.35,8.65,0.00,-0.00,0.01
8:03:00 PM,0.00,-0.41,8.70,-0.04,-0.07,0.01
8:03:00 PM,0.02,-0.46,8.82,0.01,0.02,0.01
8:03:00 PM,0.07,-0.48,8.66,-0.02,-0.09,0.01
8:03:00 PM,0.51,-0.56,8.74,-0.03,-0.07,0.01
8:03:00 PM,0.06,-0.38,8.58,0.00,0.02,0.01
8:03:00 PM,0.09,-0.38,8.64,-0.01,-0.04,0.01
8:03:00 PM,-0.06,-0.33,8.58,0.01,-0.02,0.01
8:03:01 PM,0.20,-0.41,8.77,0.02,0.07,0.01
8:03:01 PM,-0.20,-0.38,8.67,0.00,-0.09,0.01
8:03:01 PM,-0.09,-0.35,8.72,0.00,0.00,0.01
8:03:01 PM,-0.16,-0.33,8.57,-0.02,-0.01,0.01
8:03:01 PM,0.08,-0.37,8.56,-0.00,-0.05,0.01
8:03:01 PM,0.02,-0.40,8.72,0.01,0.05,0.01
8:03:01 PM,0.00,-0.44,8.80,0.05,0.05,0.01
8:03:01 PM,-0.19,-0.39,8.69,0.02,-0.04,0.01
8:03:01 PM,0.20,-0.40,8.71,0.01,0.02,0.01
8:03:01 PM,-0.04,-0.41,8.62,-0.01,-0.10,0.01
8:03:02 PM,0.29,-0.46,8.66,0.01,-0.02,0.01
8:03:02 PM,0.12,-0.28,8.49,0.03,0.03,0.01
8:03:02 PM,-0.01,-0.38,8.54,0.01,0.04,0.01
8:03:02 PM,0.01,-0.35,8.52,0.01,-0.09,0.01
8:03:02 PM,0.00,-0.31,8.50,0.03,-0.03,0.01
8:03:02 PM,0.12,-0.34,8.63,0.04,0.04,0.01
8:03:02 PM,0.04,-0.33,8.48,0.02,-0.03,0.01
8:03:02 PM,0.20,-0.35,8.53,0.01,-0.03,0.01
8:03:02 PM,0.01,-0.32,8.63,0.06,0.08,0.01
8:03:03 PM,0.04,-0.45,8.71,0.04,0.04,0.01
8:03:03 PM,0.26,-0.50,8.75,0.02,0.05,0.01
8:03:03 PM,-0.29,-0.31,8.53,-0.02,-0.00,0.01
8:03:03 PM,0.07,-0.39,8.60,0.01,-0.03,0.01
8:03:03 PM,0.09,-0.44,8.66,0.02,0.04,0.01
8:03:03 PM,-0.25,-0.32,8.52,0.00,0.04,0.01
8:03:03 PM,-0.05,-0.38,8.67,0.01,0.00,0.01
8:03:03 PM,-0.02,-0.36,8.53,0.03,-0.04,0.01
8:03:03 PM,-0.09,-0.08,8.01,0.09,0.29,0.01
8:03:04 PM,0.37,-0.42,8.44,-0.03,-0.06,0.01
8:03:04 PM,-0.00,-0.46,8.57,0.01,-0.05,0.01
8:03:04 PM,0.84,-0.19,8.79,-0.11,-0.12,0.01
8:03:04 PM,0.21,-0.62,8.77,0.02,0.08,0.01
8:03:04 PM,0.11,-0.50,8.66,0.00,-0.03,0.01
8:03:04 PM,0.02,-0.48,8.72,-0.02,0.01,0.01
8:03:04 PM,0.37,-0.54,8.62,0.01,0.02,0.01
8:03:04 PM,0.22,-0.51,8.61,-0.01,-0.04,0.01
8:03:04 PM,0.46,-0.54,8.61,-0.01,-0.10,0.01
8:03:04 PM,0.30,-0.54,8.56,-0.03,0.03,0.01
8:03:05 PM,0.22,-0.50,8.50,-0.05,-0.17,0.01
8:03:05 PM,0.10,-0.53,8.64,0.00,-0.01,0.01
8:03:05 PM,-0.21,-0.46,8.26,0.01,0.12,0.01
8:03:05 PM,0.70,-0.67,8.70,0.02,-0.13,0.01
8:03:05 PM,0.51,-0.51,8.48,0.07,0.04,0.01
8:03:05 PM,0.33,-0.52,8.60,0.01,-0.04,0.01
8:03:05 PM,0.24,-0.51,8.61,0.01,0.04,0.01
8:03:05 PM,0.08,-0.56,8.77,0.01,-0.07,0.01
8:03:05 PM,0.13,-0.54,8.60,-0.01,0.02,0.01
8:03:06 PM,0.32,-0.68,8.77,0.03,-0.04,0.01
8:03:06 PM,0.42,-0.69,8.64,0.02,-0.03,0.01
8:03:06 PM,0.59,-0.72,8.72,0.02,0.03,0.01
8:03:06 PM,0.35,-0.65,8.50,-0.02,-0.10,0.01
8:03:06 PM,0.28,-0.53,8.66,0.01,-0.04,0.01
8:03:06 PM,0.06,-0.58,8.65,0.00,-0.08,0.01
8:03:06 PM,0.26,-0.54,8.56,-0.00,-0.01,0.01
8:03:06 PM,0.38,-0.64,8.78,0.01,-0.04,0.01
8:03:06 PM,0.22,-0.43,8.59,-0.01,-0.03,0.01
8:03:06 PM,0.56,-0.52,8.40,0.01,-0.05,0.01
8:03:07 PM,0.25,-0.47,8.48,-0.00,0.02,0.01
8:03:07 PM,0.22,-0.47,8.48,0.02,0.03,0.01
8:03:07 PM,-0.01,-0.46,8.62,-0.01,-0.03,0.01
8:03:07 PM,0.29,-0.57,8.65,0.05,-0.00,0.01
8:03:07 PM,0.26,-0.62,8.75,0.00,0.04,0.01
8:03:07 PM,0.04,-0.58,8.58,-0.00,0.03,0.01
8:03:07 PM,0.34,-0.58,8.61,0.03,0.04,0.01
8:03:07 PM,0.22,-0.58,8.53,0.02,-0.04,0.01
8:03:07 PM,0.18,-0.59,8.62,0.04,-0.01,0.01
8:03:08 PM,0.22,-0.73,8.82,0.03,0.00,0.01
8:03:08 PM,0.09,-0.52,8.64,0.04,0.09,0.01
8:03:08 PM,0.73,-0.72,8.59,-0.01,-0.06,0.01
8:03:08 PM,0.07,-0.64,8.63,0.04,0.08,0.01
8:03:08 PM,0.39,-0.71,8.70,0.01,-0.04,0.01
8:03:08 PM,0.16,-0.65,8.72,-0.00,0.01,0.01
8:03:08 PM,0.19,-0.60,8.85,0.03,0.04,0.01
8:03:08 PM,0.57,-0.79,8.85,-0.01,-0.01,0.01
8:03:08 PM,0.40,-0.73,8.63,0.01,0.01,0.01
8:03:08 PM,0.50,-0.64,8.54,-0.00,0.00,0.01
8:03:09 PM,0.34,-0.61,8.58,0.02,-0.01,0.01
8:03:09 PM,0.36,-0.79,8.89,-0.01,-0.08,0.01
8:03:09 PM,0.60,-0.72,8.61,-0.03,-0.05,0.01
8:03:09 PM,0.44,-0.57,8.44,0.05,0.09,0.01
8:03:09 PM,0.09,-0.63,8.62,0.01,-0.02,0.01
8:03:09 PM,0.45,-0.63,8.56,-0.01,-0.04,0.01
8:03:09 PM,0.37,-0.67,8.67,-0.03,-0.07,0.01
8:03:09 PM,0.67,-0.70,8.64,-0.02,-0.07,0.01
8:03:09 PM,0.18,-0.59,8.55,0.03,0.01,0.01
8:03:10 PM,0.11,-0.65,8.74,0.03,-0.03,0.01
8:03:10 PM,0.33,-0.57,8.55,0.04,-0.04,0.01
8:03:10 PM,0.15,-0.56,8.57,0.03,-0.01,0.01
8:03:10 PM,0.19,-0.69,8.84,-0.01,-0.04,0.01
8:03:10 PM,0.02,-0.68,8.75,-0.01,0.00,0.01
8:03:10 PM,0.14,-0.61,8.71,-0.01,0.02,0.01
8:03:10 PM,0.31,-0.60,8.58,0.05,0.04,0.01
8:03:10 PM,0.13,-0.51,8.48,0.00,-0.03,0.01
8:03:10 PM,0.47,-0.61,8.55,0.04,-0.02,0.01
8:03:10 PM,0.08,-0.66,8.56,0.01,-0.01,0.01
8:03:11 PM,0.33,-0.76,8.62,0.02,0.02,0.01
8:03:11 PM,0.33,-0.66,8.65,-0.01,-0.02,0.01
8:03:11 PM,0.17,-0.68,8.75,-0.01,-0.02,0.01
8:03:11 PM,0.09,-0.68,8.74,0.04,0.01,0.01
8:03:11 PM,0.14,-0.74,8.76,0.03,-0.12,0.01
8:03:11 PM,0.37,-0.73,8.80,0.04,0.00,0.01
8:03:11 PM,0.00,-0.66,8.75,0.07,0.03,0.01
8:03:11 PM,-0.07,-0.58,8.54,0.02,-0.09,0.01
8:03:11 PM,0.50,-0.72,8.66,-0.00,-0.12,0.01
8:03:12 PM,-0.02,-0.62,8.73,0.01,0.08,0.01
8:03:12 PM,0.01,-0.68,8.76,0.01,0.04,0.01
8:03:12 PM,0.11,-0.56,8.54,-0.01,-0.07,0.01
8:03:12 PM,0.35,-0.65,8.58,-0.00,0.02,0.01
8:03:12 PM,0.33,-0.64,8.60,0.00,-0.03,0.01
8:03:12 PM,0.44,-0.72,8.69,0.03,0.01,0.01
8:03:12 PM,0.26,-0.60,8.61,0.02,0.06,0.01
8:03:12 PM,0.16,-0.50,8.44,0.04,-0.03,0.01
8:03:12 PM,0.20,-0.55,8.62,0.09,-0.01,0.01
8:03:12 PM,0.08,-0.48,8.48,0.04,0.01,0.01
8:03:13 PM,0.01,-0.55,8.82,0.02,-0.04,0.01
8:03:13 PM,-0.00,-0.54,8.72,0.03,0.07,0.01
8:03:13 PM,-0.05,-0.44,8.59,0.03,0.01,0.01
8:03:13 PM,0.21,-0.40,8.56,-0.01,-0.06,0.01
8:03:13 PM,0.28,-0.45,8.66,-0.01,-0.09,0.01
8:03:13 PM,0.12,-0.37,8.47,0.02,0.01,0.01
8:03:13 PM,0.09,-0.53,8.83,0.03,0.01,0.01
8:03:13 PM,0.12,-0.40,8.65,0.03,0.05,0.01
8:03:13 PM,0.13,-0.48,8.69,0.02,-0.08,0.01
8:03:14 PM,0.28,-0.50,8.78,0.02,-0.08,0.01
8:03:14 PM,0.13,-0.40,8.67,0.01,0.03,0.01
8:03:14 PM,0.28,-0.48,8.64,-0.00,-0.08,0.01
8:03:14 PM,0.25,-0.44,8.51,0.01,-0.01,0.01
8:03:14 PM,0.15,-0.38,8.49,0.03,0.04,0.01
8:03:14 PM,0.35,-0.43,8.49,0.02,-0.03,0.01
8:03:14 PM,0.45,-0.44,8.51,0.02,-0.02,0.01
8:03:14 PM,0.32,-0.53,8.70,0.01,-0.01,0.01
8:03:14 PM,0.11,-0.53,8.63,0.07,0.02,0.01
8:03:14 PM,0.15,-0.49,8.72,-0.01,-0.10,0.01
8:03:15 PM,0.38,-0.47,8.63,-0.00,-0.04,0.01
8:03:15 PM,0.09,-0.40,8.55,0.01,-0.06,0.01
8:03:15 PM,0.25,-0.43,8.58,0.02,-0.05,0.01
8:03:15 PM,0.37,-0.41,8.58,0.05,0.04,0.01
8:03:15 PM,0.39,-0.45,8.44,-0.00,-0.13,0.01
8:03:15 PM,0.40,-0.38,8.38,0.05,-0.03,0.01
8:03:15 PM,0.41,-0.41,8.46,-0.01,-0.12,0.01
8:03:15 PM,-0.09,-0.35,8.66,0.02,0.03,0.01
8:03:15 PM,0.27,-0.52,8.78,-0.02,-0.08,0.01
8:03:16 PM,-0.01,-0.36,8.63,0.02,0.06,0.01
8:03:16 PM,0.33,-0.51,8.72,-0.01,-0.08,0.01
8:03:16 PM,0.14,-0.37,8.60,0.03,0.07,0.01
8:03:16 PM,0.26,-0.39,8.49,-0.04,-0.07,0.01
8:03:16 PM,0.31,-0.40,8.63,0.04,0.10,0.01
8:03:16 PM,0.21,-0.43,8.68,-0.01,-0.08,0.01
8:03:16 PM,0.01,-0.40,8.57,0.03,0.07,0.01
8:03:16 PM,0.37,-0.44,8.61,0.00,-0.05,0.01
8:03:16 PM,0.38,-0.55,8.81,-0.00,0.01,0.01
8:03:17 PM,0.00,-0.47,8.79,0.01,0.03,0.01
8:03:17 PM,0.13,-0.35,8.63,0.05,0.01,0.01
8:03:17 PM,0.18,-0.42,8.57,-0.00,-0.06,0.01
8:03:17 PM,0.27,-0.45,8.63,0.01,-0.04,0.01
8:03:17 PM,0.29,-0.41,8.64,-0.02,-0.01,0.01
8:03:17 PM,0.32,-0.44,8.74,0.00,-0.02,0.01
8:03:17 PM,0.13,-0.45,8.68,-0.01,-0.07,0.01
8:03:17 PM,0.27,-0.52,8.90,0.04,-0.02,0.01
8:03:17 PM,0.02,-0.30,8.66,0.01,-0.04,0.01
8:03:17 PM,0.50,-0.37,8.49,0.01,-0.05,0.01
8:03:18 PM,-0.03,-0.31,8.52,0.03,0.04,0.01
8:03:18 PM,0.34,-0.40,8.66,0.02,-0.09,0.01
8:03:18 PM,0.16,-0.31,8.61,0.01,0.08,0.01
8:03:18 PM,0.23,-0.42,8.60,0.02,0.00,0.01
8:03:18 PM,0.23,-0.36,8.56,0.02,-0.06,0.01
8:03:18 PM,0.06,-0.35,8.69,0.02,0.02,0.01
8:03:18 PM,0.27,-0.41,8.77,0.02,-0.04,0.01
8:03:18 PM,-0.08,-0.41,8.79,0.02,0.00,0.01
8:03:18 PM,0.12,-0.40,8.73,0.00,-0.03,0.01
8:03:19 PM,0.05,-0.36,8.74,-0.00,0.01,0.01
8:03:19 PM,0.03,-0.31,8.70,0.01,-0.01,0.01
8:03:19 PM,0.18,-0.32,8.64,0.03,0.02,0.01
8:03:19 PM,-0.84,0.58,6.72,0.25,0.58,0.01
8:03:19 PM,0.24,-0.11,8.34,-0.04,-0.10,0.01
8:03:19 PM,0.56,-0.17,8.48,-0.02,-0.10,0.01
8:03:19 PM,-0.07,-0.27,8.71,0.01,0.05,0.01
8:03:19 PM,-0.19,-0.12,8.62,-0.01,-0.01,0.01
8:03:19 PM,-0.01,-0.12,8.55,0.01,0.04,0.01
8:03:19 PM,0.07,-0.25,8.73,0.01,0.01,0.01
8:03:20 PM,0.01,-0.19,8.62,0.01,0.03,0.01
8:03:20 PM,0.16,-0.32,8.82,0.04,-0.03,0.01
8:03:20 PM,0.17,-0.25,8.71,0.01,-0.04,0.01
8:03:20 PM,0.04,-0.11,8.58,0.02,-0.00,0.01
8:03:20 PM,0.13,-0.30,8.84,0.06,0.06,0.01
8:03:20 PM,0.36,-0.79,9.38,-0.16,-0.21,0.01
8:03:20 PM,-0.09,-0.08,8.75,0.08,0.09,0.01
8:03:20 PM,0.04,-0.10,8.75,0.00,-0.07,0.01
8:03:20 PM,0.06,-0.05,8.74,0.02,0.06,0.01
8:03:21 PM,0.08,-0.12,8.79,0.00,-0.05,0.01
8:03:21 PM,0.08,-0.02,8.58,0.01,-0.06,0.01
8:03:21 PM,0.25,-0.07,8.72,-0.00,-0.06,0.01
8:03:21 PM,-0.16,0.03,8.67,0.01,0.04,0.01
8:03:21 PM,0.06,-0.01,8.69,0.02,-0.05,0.01
8:03:21 PM,-0.03,0.06,8.42,0.02,-0.06,0.01
8:03:21 PM,-0.06,-0.09,8.78,0.10,0.05,0.01
8:03:21 PM,-0.29,-0.26,9.58,-0.08,-0.54,0.01
8:03:21 PM,-0.12,0.04,8.88,0.05,0.00,0.01
8:03:21 PM,0.11,0.03,8.76,0.01,-0.07,0.01
8:03:22 PM,0.22,0.06,8.56,0.03,0.03,0.01
8:03:22 PM,0.09,-0.06,8.87,0.00,-0.07,0.01
8:03:22 PM,-0.10,0.15,8.60,0.01,0.09,0.01
8:03:22 PM,-0.28,0.20,8.58,-0.01,-0.02,0.01
8:03:22 PM,0.18,0.13,8.67,0.04,-0.04,0.01
8:03:22 PM,-0.16,0.05,8.97,-0.01,-0.02,0.01
8:03:22 PM,-0.02,0.18,8.61,0.02,-0.03,0.01
8:03:22 PM,0.10,0.11,8.64,0.01,0.02,0.01
8:03:22 PM,-0.11,0.22,8.65,0.00,-0.05,0.01
8:03:23 PM,0.27,0.14,8.68,0.03,-0.06,0.01
8:03:23 PM,-0.04,0.21,8.63,0.01,-0.03,0.01
8:03:23 PM,0.07,0.17,8.60,-0.00,-0.05,0.01
8:03:23 PM,0.15,0.17,8.81,0.03,0.01,0.01
8:03:23 PM,-0.16,0.17,8.73,0.01,0.06,0.01
8:03:23 PM,0.19,0.16,8.57,0.02,-0.09,0.01
8:03:23 PM,-0.00,0.20,8.58,0.03,-0.04,0.01
8:03:23 PM,0.30,0.09,8.80,-0.02,-0.09,0.01
8:03:23 PM,-0.07,0.11,8.78,-0.00,-0.01,0.01
8:03:23 PM,-0.17,0.15,8.70,-0.00,-0.01,0.01
8:03:24 PM,0.11,0.18,8.68,0.04,0.03,0.01
8:03:24 PM,-0.03,0.13,8.87,0.03,0.00,0.01
8:03:24 PM,0.00,0.14,8.71,-0.02,-0.05,0.01
8:03:24 PM,0.22,0.13,8.76,0.00,-0.01,0.01
8:03:24 PM,-0.05,0.27,8.61,-0.00,-0.03,0.01
8:03:24 PM,0.01,0.28,8.51,0.02,0.00,0.01
8:03:24 PM,-0.15,0.24,8.67,0.07,0.09,0.01
8:03:24 PM,-0.32,0.23,8.62,-0.03,-0.10,0.01
8:03:24 PM,-0.01,0.17,8.82,0.03,0.02,0.01
8:03:25 PM,-0.05,0.20,8.78,0.02,-0.03,0.01
8:03:25 PM,-0.11,0.15,8.72,-0.05,-0.02,0.01
8:03:25 PM,-0.17,0.19,8.63,0.01,0.00,0.01
8:03:25 PM,0.18,0.08,8.88,-0.00,-0.04,0.01
8:03:25 PM,-0.22,0.30,8.58,0.01,-0.07,0.01
8:03:25 PM,-0.22,0.31,8.49,0.04,-0.07,0.01
8:03:25 PM,-0.03,0.22,8.70,-0.02,-0.07,0.01
8:03:25 PM,-0.18,0.16,8.73,0.02,-0.06,0.01
8:03:25 PM,0.12,0.16,8.68,0.02,-0.04,0.01
8:03:25 PM,-0.23,0.20,8.62,-0.00,0.00,0.01
8:03:26 PM,-0.06,0.17,8.73,0.02,-0.07,0.01
8:03:26 PM,-0.04,0.26,8.59,-0.01,0.01,0.01
8:03:26 PM,0.12,0.19,8.58,0.00,-0.09,0.01
8:03:26 PM,0.06,0.20,8.67,0.03,0.02,0.01
8:03:26 PM,0.02,0.11,8.72,-0.01,-0.02,0.01
8:03:26 PM,-0.26,0.14,8.75,-0.01,0.02,0.01
8:03:26 PM,0.12,0.13,8.78,0.01,-0.03,0.01
8:03:26 PM,-0.58,0.20,8.76,0.02,0.08,0.01
8:03:26 PM,0.21,0.10,8.67,-0.01,-0.01,0.01
8:03:27 PM,0.01,0.15,8.70,-0.02,-0.03,0.01
8:03:27 PM,0.10,0.16,8.76,0.01,-0.01,0.01
8:03:27 PM,0.14,0.12,8.77,0.01,0.03,0.01
8:03:27 PM,-0.24,0.21,8.53,0.01,0.00,0.01
8:03:27 PM,0.26,0.16,8.86,0.02,-0.06,0.01
8:03:27 PM,0.13,0.10,8.86,0.01,-0.08,0.01
8:03:27 PM,0.09,0.17,8.61,0.06,0.05,0.01
8:03:27 PM,0.29,0.04,8.71,0.01,-0.10,0.01
8:03:27 PM,0.14,0.22,8.51,0.05,0.12,0.01
8:03:28 PM,0.07,0.08,8.64,-0.04,-0.06,0.01
8:03:28 PM,0.14,0.07,8.64,0.00,0.01,0.01
8:03:28 PM,0.06,0.19,8.45,0.00,-0.01,0.01
8:03:28 PM,0.25,0.15,8.57,-0.01,-0.01,0.01
8:03:28 PM,0.20,0.13,8.70,0.00,0.00,0.01
8:03:28 PM,-0.11,0.15,8.71,-0.01,-0.01,0.01
8:03:28 PM,0.19,0.11,8.77,-0.01,-0.03,0.01
8:03:28 PM,-0.26,0.16,8.84,0.00,0.03,0.01
8:03:28 PM,-0.07,0.09,8.82,0.01,0.00,0.01
8:03:28 PM,0.09,0.15,8.71,0.01,-0.02,0.01
8:03:29 PM,0.68,0.09,8.81,0.03,0.08,0.01
8:03:29 PM,-0.17,0.17,8.67,-0.02,-0.09,0.01
8:03:29 PM,-0.28,0.25,8.60,-0.01,-0.03,0.01
8:03:29 PM,0.04,0.12,8.60,0.03,-0.01,0.01
8:03:29 PM,0.17,0.12,8.81,0.02,-0.12,0.01
8:03:29 PM,-0.28,0.18,8.79,0.02,0.10,0.01
8:03:29 PM,0.46,0.25,8.74,0.04,0.03,0.01
8:03:29 PM,0.48,0.11,8.90,0.08,-0.13,0.01
8:03:29 PM,0.06,0.92,7.78,0.01,0.07,0.01
8:03:30 PM,0.23,0.35,8.59,-0.07,-0.13,0.01
8:03:30 PM,0.31,0.27,9.15,-0.02,-0.27,0.01
8:03:30 PM,-0.27,0.60,8.50,0.09,0.03,0.01
8:03:30 PM,0.05,0.06,8.67,-0.02,-0.05,0.01
8:03:30 PM,0.53,0.14,8.84,0.09,-0.04,0.01
8:03:30 PM,0.52,0.34,8.62,-0.01,-0.17,0.01
8:03:30 PM,0.16,0.15,9.05,-0.02,-0.02,0.01
8:03:30 PM,0.28,0.35,8.53,-0.01,0.03,0.01
8:03:30 PM,0.42,0.19,8.66,-0.09,-0.13,0.01
8:03:30 PM,0.37,0.30,8.35,-0.05,-0.11,0.01
8:03:31 PM,0.03,0.02,8.95,-0.04,-0.08,0.01
8:03:31 PM,0.23,-0.08,8.96,-0.09,-0.10,0.01
8:03:31 PM,0.36,-0.34,9.27,0.00,-0.02,0.01
8:03:31 PM,0.44,-0.08,8.70,0.02,-0.04,0.01
8:03:31 PM,0.30,-0.03,8.76,0.05,0.04,0.01
8:03:31 PM,0.52,-0.08,8.60,0.06,-0.06,0.01
8:03:31 PM,0.23,0.05,8.81,-0.02,-0.07,0.01
8:03:31 PM,0.12,-0.03,8.72,-0.04,-0.12,0.01
8:03:31 PM,0.17,0.10,8.49,0.04,0.03,0.01
8:03:32 PM,0.12,-0.01,8.89,-0.01,-0.03,0.01
8:03:32 PM,0.09,0.03,8.84,-0.01,0.00,0.01
8:03:32 PM,0.04,0.11,8.66,-0.01,-0.02,0.01
8:03:32 PM,0.11,0.04,8.83,-0.06,-0.13,0.01
8:03:32 PM,-0.19,0.14,8.54,-0.03,-0.04,0.01
8:03:32 PM,0.33,-0.04,8.75,-0.03,-0.10,0.01
8:03:32 PM,0.20,0.12,8.73,-0.02,-0.09,0.01
8:03:32 PM,0.16,0.16,8.45,0.01,-0.10,0.01
8:03:32 PM,0.36,-0.03,8.91,-0.02,0.02,0.01
8:03:32 PM,-0.04,0.12,8.68,-0.00,-0.01,0.01
8:03:33 PM,0.19,0.14,8.62,0.05,-0.01,0.01
8:03:33 PM,-0.07,0.15,8.67,0.03,0.04,0.01
8:03:33 PM,-0.08,0.25,8.35,0.03,0.05,0.01
8:03:33 PM,-0.07,0.12,8.67,-0.01,0.01,0.01
8:03:33 PM,0.34,0.03,8.73,-0.01,-0.10,0.01
8:03:33 PM,0.24,0.10,8.66,0.02,0.02,0.01
8:03:33 PM,0.09,0.04,8.72,-0.01,-0.01,0.01
8:03:33 PM,0.21,0.02,8.62,-0.03,-0.06,0.01
8:03:33 PM,0.29,-0.00,8.73,0.01,0.01,0.01
8:03:34 PM,-0.15,0.06,8.80,-0.03,-0.01,0.01
8:03:34 PM,0.26,-0.08,8.92,0.01,-0.05,0.01
8:03:34 PM,0.26,-0.13,8.93,-0.02,0.06,0.01
8:03:34 PM,0.20,-0.08,8.80,-0.02,0.01,0.01
8:03:34 PM,-0.14,-0.11,8.80,0.01,-0.04,0.01
8:03:34 PM,-0.03,-0.05,8.97,0.04,-0.08,0.01
8:03:34 PM,0.04,0.12,8.64,0.10,-0.02,0.01
8:03:34 PM,0.01,0.03,8.62,0.05,0.07,0.01
8:03:34 PM,0.27,0.18,8.54,0.01,0.09,0.01
8:03:34 PM,0.54,0.13,8.50,-0.00,-0.05,0.01
8:03:35 PM,0.32,-0.02,8.76,-0.03,-0.12,0.01
8:03:35 PM,0.11,0.06,8.64,0.06,0.05,0.01
8:03:35 PM,-0.01,0.07,8.80,0.01,-0.04,0.01
8:03:35 PM,0.39,0.16,8.47,0.07,-0.04,0.01
8:03:35 PM,0.15,0.14,8.71,0.08,-0.05,0.01
8:03:35 PM,-0.24,0.24,8.70,-0.15,-0.46,0.01
8:03:35 PM,-0.11,0.18,8.79,-0.04,-0.05,0.01
8:03:35 PM,-0.01,0.24,8.54,-0.01,0.01,0.01
8:03:35 PM,-0.27,0.22,8.83,-0.02,-0.14,0.01
8:03:36 PM,0.17,0.23,8.54,-0.03,-0.09,0.01
8:03:36 PM,0.16,0.00,8.91,0.02,-0.03,0.01
8:03:36 PM,0.19,0.23,8.55,0.02,0.04,0.01
8:03:36 PM,0.29,0.08,8.76,0.04,0.05,0.01
8:03:36 PM,0.14,0.16,8.67,0.01,0.13,0.01
8:03:36 PM,0.33,0.10,8.79,0.04,0.01,0.01
8:03:36 PM,0.51,0.07,8.85,-0.03,-0.05,0.01
8:03:36 PM,0.25,0.15,8.73,0.04,0.08,0.01
8:03:36 PM,0.01,0.18,8.63,0.07,-0.12,0.01
8:03:36 PM,0.45,0.24,8.49,0.05,-0.02,0.01
8:03:37 PM,0.12,0.11,8.87,0.00,-0.04,0.01
8:03:37 PM,-0.01,0.17,8.76,0.01,-0.04,0.01
8:03:37 PM,-0.39,0.23,8.88,0.02,0.05,0.01
8:03:37 PM,-0.16,0.24,8.68,0.06,0.07,0.01
8:03:37 PM,-0.25,0.28,8.64,0.01,-0.01,0.01
8:03:37 PM,-0.17,0.28,8.46,0.02,-0.06,0.01
8:03:37 PM,-0.07,0.30,8.60,0.03,-0.05,0.01
8:03:37 PM,-0.12,0.29,8.76,0.03,-0.02,0.01
8:03:37 PM,-0.43,0.34,8.72,0.03,0.11,0.01
8:03:38 PM,-0.17,0.33,8.58,0.03,0.04,0.01
8:03:38 PM,0.17,0.28,8.59,0.05,-0.00,0.01
8:03:38 PM,0.06,0.22,8.88,0.05,0.04,0.01
8:03:38 PM,-0.07,0.25,8.69,0.02,0.02,0.01
8:03:38 PM,0.04,0.25,8.64,0.04,0.00,0.01
8:03:38 PM,-0.16,0.24,8.73,-0.02,0.01,0.01
8:03:38 PM,0.05,0.21,8.73,0.04,0.03,0.01
8:03:38 PM,-0.06,0.23,8.69,-0.00,0.02,0.01
8:03:38 PM,-0.02,0.28,8.55,0.00,0.04,0.01
8:03:38 PM,0.07,0.16,8.83,0.03,0.01,0.01
8:03:39 PM,-0.13,0.26,8.65,-0.01,-0.07,0.01
8:03:39 PM,-0.26,0.32,8.58,0.02,0.00,0.01
8:03:39 PM,-0.34,0.38,8.58,-0.00,-0.00,0.01
8:03:39 PM,-0.16,0.23,8.73,0.01,-0.03,0.01
8:03:39 PM,0.08,0.13,8.76,0.02,0.01,0.01
8:03:39 PM,0.11,0.21,8.68,-0.01,0.02,0.01
8:03:39 PM,-0.00,0.23,8.62,0.01,0.03,0.01
8:03:39 PM,-0.11,0.27,8.58,0.02,0.04,0.01
8:03:39 PM,0.16,0.20,8.61,0.03,-0.02,0.01
8:03:40 PM,0.07,0.11,8.74,-0.04,-0.06,0.01
8:03:40 PM,0.20,0.24,8.52,0.01,0.01,0.01
8:03:40 PM,0.00,0.18,8.87,0.02,-0.01,0.01
8:03:40 PM,-0.19,0.34,8.60,-0.02,-0.04,0.01
8:03:40 PM,-0.06,0.21,8.82,0.03,-0.08,0.01
8:03:40 PM,0.09,0.14,8.66,-0.01,-0.00,0.01
8:03:40 PM,0.26,0.19,8.60,-0.03,-0.06,0.01
8:03:40 PM,0.08,0.22,8.65,-0.02,-0.09,0.01
8:03:40 PM,0.17,0.15,8.48,-0.00,-0.09,0.01
8:03:41 PM,0.09,0.28,8.77,0.05,-0.10,0.01
8:03:41 PM,0.04,0.26,8.65,-0.03,0.01,0.01
8:03:41 PM,0.19,0.18,8.72,0.02,-0.07,0.01
8:03:41 PM,0.38,0.11,8.69,0.02,0.05,0.01
8:03:41 PM,0.13,0.16,8.76,-0.00,-0.04,0.01
8:03:41 PM,0.09,0.24,8.70,-0.03,0.00,0.01
8:03:41 PM,-0.00,0.26,8.62,-0.04,-0.02,0.01
8:03:41 PM,0.49,0.27,8.43,0.05,-0.10,0.01
8:03:41 PM,0.17,0.34,8.51,0.06,0.06,0.01
8:03:41 PM,0.05,0.23,8.74,-0.03,-0.05,0.01
8:03:42 PM,0.13,0.21,8.66,0.04,0.02,0.01
8:03:42 PM,0.01,0.24,8.79,-0.01,-0.02,0.01
8:03:42 PM,0.24,0.24,8.71,-0.00,0.01,0.01
8:03:42 PM,0.10,0.29,8.66,0.01,0.08,0.01
8:03:42 PM,0.00,0.32,8.56,0.02,-0.04,0.01
8:03:42 PM,-0.01,0.31,8.54,0.05,-0.02,0.01
8:03:42 PM,0.36,0.30,8.48,0.02,-0.06,0.01
8:03:42 PM,0.14,0.26,8.64,0.06,-0.05,0.01
8:03:42 PM,-0.16,0.27,8.72,0.01,0.00,0.01
