Timestamp,Accel X,Accel Y,Accel Z,Gyro X,Gyro Y,Gyro Z
7:37:43 PM,-9.32,-0.37,3.38,-0.08,-0.45,0.01
7:37:43 PM,-9.03,0.07,3.63,-0.05,-0.43,0.01
7:37:43 PM,-9.07,-0.18,3.66,-0.08,-0.17,0.01
7:37:44 PM,-8.91,-0.28,3.74,0.03,0.06,0.01
7:37:44 PM,-9.27,-0.04,3.49,-0.03,-0.24,0.01
7:37:44 PM,-8.99,-0.11,3.69,-0.05,-0.01,0.01
7:37:44 PM,-9.56,0.20,3.44,0.07,0.05,0.01
7:37:44 PM,-9.81,0.27,3.25,0.07,0.01,0.01
7:37:44 PM,-9.48,0.17,3.47,0.06,-0.09,0.01
7:37:44 PM,-9.31,0.29,3.54,-0.01,-0.07,0.01
7:37:44 PM,-9.21,0.19,3.61,-0.07,-0.25,0.01
7:37:44 PM,-9.08,0.05,3.62,-0.06,0.02,0.01
7:37:44 PM,-9.01,0.13,3.73,0.05,-0.06,0.01
7:37:45 PM,-9.31,0.20,3.52,0.01,0.09,0.01
7:37:45 PM,-9.28,0.09,3.60,0.02,-0.14,0.01
7:37:45 PM,-9.42,0.10,3.49,0.04,0.09,0.01
7:37:45 PM,-9.57,0.24,3.45,0.05,0.06,0.01
7:37:45 PM,-9.80,0.64,3.57,-0.27,-0.10,0.01
7:37:45 PM,-11.01,0.47,2.41,0.21,-0.15,0.02
7:37:45 PM,-9.03,0.05,4.02,-0.12,-0.56,0.01
7:37:45 PM,-8.60,0.17,4.09,-0.13,-0.10,0.01
7:37:45 PM,-9.52,0.28,3.47,-0.03,-0.31,0.01
7:37:46 PM,-9.30,0.25,3.68,0.06,-0.20,0.01
7:37:46 PM,-9.16,0.14,3.80,0.02,-0.26,0.01
7:37:46 PM,-8.77,-0.24,3.99,-0.11,0.09,0.01
7:37:46 PM,-9.23,0.11,3.69,0.11,-0.09,0.01
7:37:46 PM,-9.07,0.09,3.77,-0.03,-0.07,0.01
7:37:46 PM,-9.42,0.28,3.56,-0.01,-0.08,0.01
7:37:46 PM,-9.27,0.23,3.67,0.09,-0.08,0.01
7:37:46 PM,-9.18,0.18,3.72,-0.11,-0.11,0.01
7:37:46 PM,-9.17,0.03,3.75,0.03,-0.04,0.01
7:37:47 PM,-9.12,0.16,3.71,0.14,0.01,0.01
7:37:47 PM,-9.36,0.25,3.62,-0.14,-0.06,0.01
7:37:47 PM,-8.77,0.04,3.90,0.05,-0.12,0.01
7:37:47 PM,-8.93,0.25,3.80,-0.04,-0.13,0.01
7:37:47 PM,-8.95,0.11,3.72,-0.02,-0.05,0.01
7:37:47 PM,-9.05,0.22,3.64,0.09,0.20,0.01
7:37:47 PM,-9.33,0.24,3.54,0.03,0.15,0.01
7:37:47 PM,-9.45,0.28,3.43,0.08,0.03,0.01
7:37:47 PM,-9.33,0.22,3.44,0.07,0.22,0.01
7:37:47 PM,-9.46,0.16,3.32,0.01,0.06,0.01
7:37:48 PM,-9.52,0.34,3.35,0.02,0.10,0.01
7:37:48 PM,-9.48,0.38,3.35,0.01,0.07,0.01
7:37:48 PM,-9.75,0.52,3.14,0.03,-0.03,0.01
7:37:48 PM,-9.19,0.24,3.40,-0.01,-0.17,0.01
7:37:48 PM,-9.36,0.32,3.32,-0.01,-0.15,0.01
7:37:48 PM,-9.43,0.45,3.34,-0.08,-0.13,0.01
7:37:48 PM,-9.28,0.37,3.40,0.03,-0.04,0.01
7:37:48 PM,-9.08,0.31,3.51,0.03,0.10,0.01
7:37:48 PM,-9.34,0.37,3.33,0.01,0.12,0.01
7:37:49 PM,-9.52,0.46,3.24,0.05,0.09,0.01
7:37:49 PM,-9.70,0.60,3.14,0.04,0.07,0.01
7:37:49 PM,-9.52,0.51,3.27,0.01,-0.04,0.01
7:37:49 PM,-9.23,0.42,3.42,-0.01,0.04,0.01
7:37:49 PM,-9.14,0.20,3.41,0.04,0.10,0.01
7:37:49 PM,-9.65,0.44,3.12,0.12,0.11,0.01
7:37:49 PM,-9.56,0.58,3.19,0.04,0.09,0.01
7:37:49 PM,-9.66,0.62,3.09,0.04,-0.02,0.01
7:37:49 PM,-9.67,0.53,3.09,0.04,0.03,0.01
7:37:49 PM,-9.26,0.42,3.28,0.04,-0.03,0.01
7:37:50 PM,-9.62,0.67,3.10,-0.05,0.03,0.01
7:37:50 PM,-9.56,0.52,3.06,-0.00,-0.09,0.01
7:37:50 PM,-9.33,0.53,3.26,-0.02,-0.10,0.01
7:37:50 PM,-9.24,0.47,3.26,-0.01,-0.07,0.01
7:37:50 PM,-9.30,0.40,3.17,-0.01,-0.08,0.01
7:37:50 PM,-9.23,0.45,3.11,0.00,0.05,0.01
7:37:50 PM,-9.54,0.63,3.01,0.07,0.08,0.01
7:37:50 PM,-9.73,0.56,2.90,0.01,0.08,0.01
7:37:50 PM,-10.03,0.81,2.67,0.04,0.03,0.01
7:37:51 PM,-9.73,0.60,2.85,-0.04,-0.09,0.01
7:37:51 PM,-9.65,0.58,2.92,-0.06,-0.11,0.01
7:37:51 PM,-9.45,0.65,3.01,0.00,-0.13,0.01
7:37:51 PM,-9.33,0.68,3.03,-0.03,-0.05,0.01
7:37:51 PM,-9.30,0.51,3.17,0.04,-0.08,0.01
7:37:51 PM,-9.26,0.64,3.15,-0.01,-0.03,0.01
7:37:51 PM,-9.42,0.63,3.02,-0.02,0.01,0.01
7:37:51 PM,-9.45,0.57,3.04,0.06,-0.02,0.01
7:37:51 PM,-9.44,0.79,2.96,-0.03,0.06,0.01
7:37:51 PM,-9.60,0.75,2.92,0.06,0.02,0.01
7:37:52 PM,-9.65,0.70,2.93,-0.01,0.10,0.01
7:37:52 PM,-9.61,0.78,2.98,0.03,0.01,0.01
7:37:52 PM,-9.72,0.79,2.91,-0.00,-0.03,0.01
7:37:52 PM,-9.49,0.69,3.05,0.03,-0.08,0.01
7:37:52 PM,-9.34,0.69,3.11,-0.02,0.02,0.01
7:37:52 PM,-9.50,0.65,3.04,0.06,0.09,0.01
7:37:52 PM,-9.32,0.81,3.17,0.04,0.01,0.01
7:37:52 PM,-9.43,0.62,3.06,0.02,0.08,0.01
7:37:52 PM,-9.50,0.69,3.01,0.01,-0.03,0.01
7:37:53 PM,-9.45,0.79,3.04,-0.16,0.02,0.01
7:37:53 PM,-10.10,0.96,2.52,0.12,0.09,0.01
7:37:53 PM,-9.62,1.23,2.72,0.06,-0.13,0.01
7:37:53 PM,-9.71,1.08,2.69,0.01,-0.07,0.01
7:37:53 PM,-9.49,1.00,2.78,-0.09,-0.15,0.01
7:37:53 PM,-9.46,0.99,2.79,-0.04,-0.11,0.01
7:37:53 PM,-9.37,0.88,2.82,0.14,-0.00,0.01
7:37:53 PM,-9.58,1.00,2.67,0.17,0.06,0.01
7:37:53 PM,-9.82,1.01,2.55,-0.02,-0.02,0.01
7:37:53 PM,-9.62,0.95,2.66,0.14,0.16,0.01
7:37:54 PM,-9.73,1.02,2.58,0.06,0.01,0.01
7:37:54 PM,-9.82,0.88,2.52,0.05,0.04,0.01
7:37:54 PM,-9.82,0.92,2.54,-0.04,-0.08,0.01
7:37:54 PM,-9.73,0.93,2.53,-0.08,-0.08,0.01
7:37:54 PM,-9.86,0.88,2.49,-0.05,-0.20,0.01
7:37:54 PM,-9.50,0.93,2.73,-0.01,0.06,0.01
7:37:54 PM,-9.58,0.88,2.68,-0.03,-0.14,0.01
7:37:54 PM,-9.63,0.91,2.65,-0.02,-0.02,0.01
7:37:54 PM,-9.75,0.87,2.60,-0.03,-0.05,0.01
7:37:55 PM,-9.75,0.97,2.65,-0.03,-0.07,0.01
7:37:55 PM,-9.53,0.91,2.73,-0.01,-0.01,0.01
7:37:55 PM,-9.65,0.92,2.69,0.00,0.04,0.01
7:37:55 PM,-9.67,0.99,2.68,-0.02,0.03,0.01
7:37:55 PM,-9.55,0.86,2.74,0.05,0.09,0.01
7:37:55 PM,-9.56,0.85,2.72,0.04,0.06,0.01
7:37:55 PM,-9.81,0.96,2.63,0.03,0.06,0.01
7:37:55 PM,-9.71,0.95,2.65,-0.00,0.02,0.01
7:37:55 PM,-9.58,0.89,2.74,0.01,0.07,0.01
7:37:55 PM,-10.01,1.00,2.50,0.09,0.09,0.01
7:37:56 PM,-10.02,0.96,2.48,0.05,-0.02,0.01
7:37:56 PM,-9.80,0.90,2.60,0.00,-0.01,0.01
7:37:56 PM,-9.80,0.93,2.62,-0.01,-0.09,0.01
7:37:56 PM,-9.62,0.86,2.73,0.02,0.00,0.01
7:37:56 PM,-9.67,0.90,2.72,0.04,-0.07,0.01
7:37:56 PM,-9.78,0.85,2.60,0.03,0.13,0.01
7:37:56 PM,-9.78,0.81,2.59,0.05,0.07,0.01
7:37:56 PM,-9.76,1.00,2.63,-0.00,-0.02,0.01
7:37:56 PM,-9.64,0.92,2.70,0.01,-0.05,0.01
7:37:57 PM,-9.66,1.01,2.70,-0.01,-0.11,0.01
7:37:57 PM,-9.49,0.91,2.77,0.02,-0.05,0.01
7:37:57 PM,-9.84,1.05,2.57,0.01,0.03,0.01
7:37:57 PM,-9.92,1.11,2.54,-0.02,-0.05,0.01
7:37:57 PM,-9.55,0.86,2.77,-0.01,-0.12,0.01
7:37:57 PM,-9.33,0.94,2.94,-0.02,0.01,0.01
7:37:57 PM,-9.51,0.99,2.80,0.10,0.12,0.01
7:37:57 PM,-9.90,1.16,2.57,0.09,-0.00,0.01
7:37:57 PM,-9.86,1.15,2.67,0.10,-0.12,0.01
7:37:57 PM,-9.72,1.03,2.71,-0.01,-0.04,0.01
7:37:58 PM,-9.64,1.04,2.70,-0.02,-0.09,0.01
7:37:58 PM,-9.46,0.97,2.89,0.04,-0.01,0.01
7:37:58 PM,-9.62,1.13,2.64,-0.01,0.08,0.01
7:37:58 PM,-9.57,0.95,2.77,0.03,-0.00,0.01
7:37:58 PM,-9.62,0.95,2.71,0.00,0.04,0.01
7:37:58 PM,-9.64,1.02,2.72,0.02,-0.03,0.01
7:37:58 PM,-9.69,1.07,2.69,0.02,0.06,0.01
7:37:58 PM,-9.77,1.12,2.68,0.03,-0.07,0.01
7:37:58 PM,-9.62,1.04,2.77,-0.01,-0.03,0.01
7:37:59 PM,-9.72,1.02,2.67,0.03,-0.00,0.01
7:37:59 PM,-9.45,1.14,2.90,0.02,-0.06,0.01
7:37:59 PM,-9.51,1.08,2.87,-0.00,0.00,0.01
7:37:59 PM,-9.58,1.17,2.80,0.01,-0.01,0.01
7:37:59 PM,-9.60,1.07,2.79,-0.02,-0.17,0.01
7:37:59 PM,-9.67,1.10,2.72,-0.01,-0.03,0.01
7:37:59 PM,-9.29,1.06,2.98,0.04,-0.11,0.01
7:37:59 PM,-9.44,1.03,2.84,-0.03,0.01,0.01
7:37:59 PM,-9.59,1.07,2.76,0.02,-0.05,0.01
7:38:00 PM,-9.63,0.96,2.79,0.06,0.14,0.01
7:38:00 PM,-9.96,1.18,2.54,0.01,0.06,0.01
7:38:00 PM,-9.77,1.18,2.70,-0.01,-0.11,0.01
7:38:00 PM,-9.63,1.03,2.77,0.00,-0.15,0.01
7:38:00 PM,-9.22,0.95,3.09,-0.00,-0.22,0.01
7:38:00 PM,-9.51,0.96,2.89,-0.02,0.08,0.01
7:38:00 PM,-9.62,0.95,2.78,0.04,0.07,0.01
7:38:00 PM,-9.36,1.01,2.90,0.02,0.02,0.01
7:38:00 PM,-9.67,1.13,2.75,0.03,-0.05,0.01
7:38:00 PM,-9.56,1.05,2.84,0.05,-0.00,0.01
7:38:01 PM,-9.96,1.16,2.64,0.03,-0.07,0.01
7:38:01 PM,-9.72,1.07,2.78,-0.03,-0.05,0.01
7:38:01 PM,-9.73,1.07,2.72,-0.04,-0.12,0.01
7:38:01 PM,-9.55,1.09,2.90,-0.03,-0.00,0.01
7:38:01 PM,-9.48,0.99,2.93,-0.01,-0.12,0.01
7:38:01 PM,-9.58,1.13,2.88,-0.03,-0.03,0.01
7:38:01 PM,-9.70,1.07,2.80,0.02,0.06,0.01
7:38:01 PM,-9.58,1.04,2.90,-0.00,-0.12,0.01
7:38:01 PM,-9.64,1.12,2.85,-0.03,0.09,0.01
7:38:02 PM,-9.65,1.12,2.83,0.01,-0.04,0.01
7:38:02 PM,-9.80,1.22,2.72,-0.01,0.02,0.01
7:38:02 PM,-9.61,1.09,2.92,0.01,-0.03,0.01
7:38:02 PM,-9.64,1.12,2.86,0.01,-0.05,0.01
7:38:02 PM,-9.50,1.16,2.97,-0.00,0.02,0.01
7:38:02 PM,-9.38,1.02,3.02,0.01,-0.11,0.01
7:38:02 PM,-9.50,1.06,3.00,-0.02,0.01,0.01
7:38:02 PM,-9.62,1.05,2.89,0.02,-0.03,0.01
7:38:02 PM,-9.45,1.08,2.97,-0.01,0.05,0.01
7:38:02 PM,-9.65,1.01,2.84,0.02,0.10,0.01
7:38:03 PM,-9.76,1.05,2.75,0.03,0.11,0.01
7:38:03 PM,-9.56,1.11,2.88,0.00,-0.03,0.01
7:38:03 PM,-9.77,1.14,2.77,0.01,-0.09,0.01
7:38:03 PM,-9.70,1.07,2.76,-0.04,-0.10,0.01
7:38:03 PM,-9.44,0.91,3.01,-0.01,-0.11,0.01
7:38:03 PM,-9.33,0.94,3.05,-0.02,-0.04,0.01
7:38:03 PM,-9.37,0.90,2.98,0.02,0.06,0.01
7:38:03 PM,-9.39,0.91,3.02,0.05,0.13,0.01
7:38:03 PM,-9.62,1.24,2.83,0.02,0.16,0.01
7:38:04 PM,-9.82,1.10,2.77,-0.03,0.03,0.01
7:38:04 PM,-9.87,1.09,2.74,-0.01,-0.23,0.01
7:38:04 PM,-9.44,0.88,2.99,-0.01,-0.05,0.01
7:38:04 PM,-9.50,0.86,2.95,0.02,0.04,0.01
7:38:04 PM,-9.72,1.17,2.94,-0.02,-0.06,0.01
7:38:04 PM,-9.52,0.98,2.94,-0.06,-0.04,0.01
7:38:04 PM,-9.33,0.77,3.07,0.04,-0.11,0.01
7:38:04 PM,-9.23,0.62,3.16,-0.02,0.02,0.01
7:38:04 PM,-9.61,0.87,2.96,0.04,0.08,0.01
7:38:04 PM,-9.86,1.21,2.83,0.00,0.03,0.01
7:38:05 PM,-9.90,1.15,2.81,-0.04,-0.13,0.01
7:38:05 PM,-9.51,0.97,2.99,-0.02,-0.13,0.01
7:38:05 PM,-9.32,0.70,3.14,-0.00,-0.15,0.01
7:38:05 PM,-9.14,0.93,3.34,-0.04,0.01,0.01
7:38:05 PM,-9.63,0.86,3.06,-0.02,-0.03,0.01
7:38:05 PM,-9.57,0.98,3.09,0.04,-0.05,0.01
7:38:05 PM,-9.57,0.90,3.11,-0.01,0.01,0.01
7:38:05 PM,-9.39,0.82,3.20,-0.03,-0.08,0.01
7:38:05 PM,-9.24,0.66,3.31,-0.02,-0.01,0.01
7:38:06 PM,-9.41,0.91,3.18,-0.14,-0.29,0.01
7:38:06 PM,-9.30,0.72,3.28,-0.10,-0.06,0.01
7:38:06 PM,-9.50,0.87,3.16,0.05,-0.03,0.01
7:38:06 PM,-9.31,0.83,3.23,-0.05,-0.07,0.01
7:38:06 PM,-9.22,0.73,3.25,0.05,0.02,0.01
7:38:06 PM,-9.36,0.79,3.21,0.04,0.19,0.01
7:38:06 PM,-9.53,1.31,3.16,0.13,-0.00,0.01
7:38:06 PM,-9.55,0.79,3.02,0.01,-0.08,0.01
7:38:06 PM,-9.27,0.72,3.24,-0.00,-0.12,0.01
7:38:06 PM,-9.41,0.92,3.22,-0.02,-0.10,0.01
7:38:07 PM,-9.52,0.79,3.15,0.01,0.06,0.01
7:38:07 PM,-9.50,0.87,3.13,-0.02,0.05,0.01
7:38:07 PM,-9.47,0.79,3.17,0.09,0.10,0.01
7:38:07 PM,-9.63,0.44,3.06,-0.02,-0.16,0.01
7:38:07 PM,-9.41,0.74,3.28,0.01,-0.13,0.01
7:38:07 PM,-9.42,0.85,3.24,0.04,0.01,0.01
7:38:07 PM,-9.24,0.65,3.41,-0.01,-0.07,0.01
7:38:07 PM,-9.42,0.71,3.12,-0.18,-0.18,0.01
7:38:07 PM,-9.53,0.90,3.22,0.08,-0.09,0.01
7:38:08 PM,-9.72,1.06,3.13,0.09,0.03,0.01
7:38:08 PM,-9.22,0.61,3.38,0.06,-0.06,0.01
7:38:08 PM,-9.60,0.91,3.21,-0.02,0.02,0.01
7:38:08 PM,-9.31,0.71,3.34,0.03,0.12,0.01
7:38:08 PM,-9.47,0.79,3.34,-0.05,-0.11,0.01
7:38:08 PM,-9.63,0.78,3.17,0.02,-0.09,0.01
7:38:08 PM,-9.30,0.80,3.51,-0.04,-0.27,0.01
7:38:08 PM,-9.00,0.49,3.58,-0.03,-0.08,0.01
7:38:08 PM,-9.01,0.57,3.63,0.03,0.09,0.01
7:38:08 PM,-9.28,0.53,3.39,-0.02,-0.01,0.01
7:38:09 PM,-9.26,0.51,3.44,-0.01,0.01,0.01
7:38:09 PM,-9.37,0.81,3.36,-0.04,-0.00,0.01
7:38:09 PM,-9.00,0.40,3.55,-0.01,0.05,0.01
7:38:09 PM,-9.37,0.67,3.37,0.05,0.01,0.01
7:38:09 PM,-9.76,1.06,2.99,-0.02,0.05,0.01
7:38:09 PM,-9.70,0.85,3.19,-0.01,-0.24,0.01
7:38:09 PM,-9.14,0.61,3.46,-0.06,-0.01,0.01
7:38:09 PM,-9.15,0.69,3.43,-0.01,-0.10,0.01
7:38:09 PM,-9.17,0.70,3.45,-0.04,0.16,0.01
7:38:10 PM,-9.37,0.74,3.34,0.08,0.04,0.01
7:38:10 PM,-9.46,0.66,3.38,0.02,-0.01,0.01
7:38:10 PM,-9.38,0.78,3.45,-0.01,-0.07,0.01
7:38:10 PM,-9.14,0.73,3.34,-0.00,0.07,0.01
7:38:10 PM,-9.45,0.83,3.26,-0.02,-0.05,0.01
7:38:10 PM,-9.50,0.73,3.24,-0.01,-0.06,0.01
7:38:10 PM,-9.02,0.51,3.54,0.01,-0.15,0.01
7:38:10 PM,-9.52,0.91,3.20,-0.08,0.10,0.01
7:38:10 PM,-9.35,0.65,3.27,0.09,-0.17,0.01
7:38:11 PM,-9.71,0.97,3.12,0.07,-0.10,0.01
7:38:11 PM,-9.02,0.73,3.38,0.06,-0.04,0.01
7:38:11 PM,-9.50,1.06,2.89,-0.08,-0.07,0.01
7:38:11 PM,-9.56,0.54,3.37,0.06,-0.06,0.01
7:38:11 PM,-9.34,0.43,3.42,0.08,0.04,0.01
7:38:11 PM,-9.45,0.78,3.47,-0.03,-0.04,0.01
7:38:11 PM,-9.58,0.74,3.24,-0.01,0.14,0.01
7:38:11 PM,-9.55,0.64,3.34,-0.03,-0.15,0.01
7:38:11 PM,-9.13,0.77,3.50,0.04,0.10,0.01
7:38:11 PM,-9.46,0.72,3.06,0.07,0.08,0.01
7:38:12 PM,-9.27,0.51,3.51,0.09,-0.07,0.01
7:38:12 PM,-9.25,0.59,3.56,-0.03,-0.07,0.01
7:38:12 PM,-9.39,0.62,3.36,0.01,0.17,0.01
7:38:12 PM,-9.59,0.75,3.13,0.07,0.02,0.01
7:38:12 PM,-9.40,0.57,3.44,-0.00,-0.03,0.01
7:38:12 PM,-8.84,0.55,3.72,-0.06,-0.06,0.01
7:38:12 PM,-9.01,0.38,3.55,-0.00,0.05,0.01
7:38:12 PM,-9.35,0.64,3.30,-0.02,-0.04,0.01
7:38:12 PM,-9.13,0.54,3.41,-0.06,0.08,0.01
7:38:13 PM,-9.30,0.25,3.34,0.05,-0.09,0.01
7:38:13 PM,-9.24,0.55,3.46,-0.04,-0.05,0.01
7:38:13 PM,-9.43,0.60,3.33,0.03,0.09,0.01
7:38:13 PM,-9.56,0.50,3.26,0.01,0.07,0.01
7:38:13 PM,-9.49,0.39,3.23,0.10,0.06,0.01
7:38:13 PM,-9.46,0.47,3.19,-0.00,-0.12,0.01
7:38:13 PM,-9.55,0.62,3.34,-0.05,-0.00,0.01
7:38:13 PM,-9.23,0.65,3.48,0.13,-0.02,0.01
7:38:13 PM,-9.66,0.50,3.25,0.02,-0.01,0.01
7:38:13 PM,-9.66,0.61,3.02,-0.00,0.01,0.01
7:38:14 PM,-9.28,0.48,3.39,0.05,-0.07,0.01
7:38:14 PM,-9.40,0.41,3.18,-0.05,0.03,0.01
7:38:14 PM,-9.48,0.53,3.29,-0.05,-0.08,0.01
7:38:14 PM,-9.22,0.49,3.24,-0.03,-0.04,0.01
7:38:14 PM,-9.28,0.55,3.37,0.02,-0.05,0.01
7:38:14 PM,-9.39,0.63,3.20,-0.01,0.11,0.01
7:38:14 PM,-9.63,0.56,3.13,0.01,-0.05,0.01
7:38:14 PM,-9.38,0.57,3.22,-0.00,0.05,0.01
7:38:14 PM,-9.37,0.41,3.20,0.05,-0.02,0.01
7:38:15 PM,-9.55,0.47,3.26,-0.02,-0.10,0.01
7:38:15 PM,-9.58,0.50,3.20,-0.01,-0.02,0.01
7:38:15 PM,-9.50,0.62,3.15,-0.01,-0.06,0.01
7:38:15 PM,-9.24,0.65,3.15,0.05,0.12,0.01
7:38:15 PM,-9.38,0.51,3.28,0.04,-0.15,0.01
7:38:15 PM,-9.16,0.24,3.62,0.01,-0.03,0.01
7:38:15 PM,-9.72,0.60,3.13,-0.04,-0.09,0.01
7:38:15 PM,-9.56,0.42,3.27,0.10,-0.03,0.01
7:38:15 PM,-9.49,0.58,3.21,-0.01,-0.13,0.01
7:38:15 PM,-8.96,0.40,3.57,0.05,0.24,0.01
7:38:16 PM,-9.19,0.50,3.30,0.07,0.09,0.01
7:38:16 PM,-9.47,0.50,3.18,0.03,-0.06,0.01
7:38:16 PM,-9.76,0.85,3.07,-0.04,-0.04,0.01
7:38:16 PM,-9.35,0.50,3.28,-0.01,0.08,0.01
7:38:16 PM,-8.86,0.53,3.57,-0.02,-0.08,0.01
7:38:16 PM,-9.25,0.57,3.44,-0.03,-0.10,0.01
7:38:16 PM,-9.33,0.51,3.40,-0.01,-0.02,0.01
7:38:16 PM,-9.44,0.66,3.29,0.00,-0.01,0.01
7:38:16 PM,-9.48,0.65,3.34,0.02,-0.07,0.01
7:38:17 PM,-9.05,0.38,3.47,0.12,0.25,0.01
7:38:17 PM,-9.03,0.65,3.58,0.15,-0.11,0.01
7:38:17 PM,-9.09,0.42,3.57,-0.03,-0.19,0.01
7:38:17 PM,-9.28,0.60,3.48,-0.03,-0.02,0.01
7:38:17 PM,-9.09,0.59,3.48,-0.03,0.11,0.01
7:38:17 PM,-9.23,0.62,3.45,-0.04,0.03,0.01
7:38:17 PM,-9.56,0.77,3.26,0.04,0.15,0.01
7:38:17 PM,-9.38,0.62,3.31,-0.02,-0.00,0.01
7:38:17 PM,-9.48,0.63,3.29,-0.01,-0.04,0.01
7:38:17 PM,-9.16,0.57,3.50,0.00,-0.04,0.01
7:38:18 PM,-9.48,0.74,3.30,0.02,-0.04,0.01
7:38:18 PM,-9.07,0.75,3.44,-0.01,0.03,0.01
7:38:18 PM,-8.88,0.64,3.58,-0.01,-0.04,0.01
7:38:18 PM,-9.26,0.64,3.41,0.00,0.00,0.01
7:38:18 PM,-9.24,0.38,3.34,-0.00,0.06,0.01
7:38:18 PM,-9.34,0.69,3.37,-0.03,-0.04,0.01
7:38:18 PM,-9.33,0.79,3.37,-0.01,-0.04,0.01
7:38:18 PM,-9.13,0.60,3.45,-0.00,0.02,0.01
7:38:18 PM,-9.39,0.65,3.37,-0.01,-0.06,0.01
7:38:19 PM,-9.39,0.68,3.31,0.03,0.05,0.01
7:38:19 PM,-9.46,0.68,3.28,0.05,0.05,0.01
7:38:19 PM,-9.36,0.68,3.33,-0.01,0.02,0.01
7:38:19 PM,-9.12,0.56,3.44,-0.04,-0.09,0.01
7:38:19 PM,-9.38,0.66,3.41,-0.00,-0.14,0.01
7:38:19 PM,-9.17,0.57,3.49,0.02,0.00,0.01
7:38:19 PM,-9.41,0.61,3.41,-0.01,-0.02,0.01
7:38:19 PM,-9.45,0.68,3.39,0.04,0.09,0.01
7:38:19 PM,-9.26,0.60,3.46,-0.02,0.04,0.01
7:38:19 PM,-9.43,0.68,3.32,0.02,-0.03,0.01
7:38:20 PM,-9.52,0.70,3.23,0.04,0.05,0.01
7:38:20 PM,-9.30,0.51,3.30,-0.06,-0.05,0.01
7:38:20 PM,-9.40,0.57,3.35,0.04,-0.03,0.01
7:38:20 PM,-9.15,0.58,3.41,0.01,-0.02,0.01
7:38:20 PM,-9.27,0.64,3.36,0.10,0.01,0.01
7:38:20 PM,-9.83,0.63,2.97,0.16,0.06,0.01
7:38:20 PM,-9.29,0.54,3.29,-0.05,-0.07,0.01
7:38:20 PM,-9.26,0.48,3.35,-0.04,-0.11,0.01
7:38:20 PM,-9.55,0.67,3.19,0.04,0.01,0.01
7:38:21 PM,-9.36,0.56,3.34,-0.02,-0.06,0.01
7:38:21 PM,-9.17,0.45,3.37,-0.02,0.02,0.01
7:38:21 PM,-9.23,0.53,3.31,-0.02,-0.02,0.01
7:38:21 PM,-9.55,0.61,3.20,0.02,0.03,0.01
7:38:21 PM,-9.25,0.53,3.41,-0.05,-0.11,0.01
7:38:21 PM,-9.39,0.69,3.37,0.01,0.05,0.01
7:38:21 PM,-8.97,0.42,3.51,-0.03,-0.01,0.01
7:38:21 PM,-9.41,0.65,3.37,0.02,-0.06,0.01
7:38:21 PM,-9.41,0.62,3.29,0.00,-0.02,0.01
7:38:21 PM,-9.34,0.42,3.36,0.01,0.01,0.01
7:38:22 PM,-9.34,0.67,3.30,-0.06,0.04,0.01
7:38:22 PM,-9.49,0.80,3.27,0.05,-0.06,0.01
7:38:22 PM,-9.05,0.37,3.53,-0.01,0.02,0.01
7:38:22 PM,-9.34,0.57,3.34,-0.02,-0.05,0.01
7:38:22 PM,-9.36,0.57,3.38,0.04,0.02,0.01
7:38:22 PM,-9.25,0.44,3.49,-0.01,-0.11,0.01
7:38:22 PM,-9.19,0.64,3.55,0.01,-0.03,0.01
7:38:22 PM,-9.18,0.51,3.45,0.00,0.03,0.01
7:38:22 PM,-9.39,0.64,3.35,0.02,-0.18,0.01
7:38:23 PM,-9.12,0.43,3.63,-0.05,-0.08,0.01
7:38:23 PM,-9.27,0.68,3.51,-0.02,-0.05,0.01
7:38:23 PM,-9.50,0.65,3.30,0.03,0.02,0.01
7:38:23 PM,-8.91,0.41,3.65,0.06,-0.09,0.01
7:38:23 PM,-9.30,0.54,3.45,-0.01,0.08,0.01
7:38:23 PM,-9.50,0.68,3.26,0.02,0.03,0.01
7:38:23 PM,-9.36,0.49,3.41,0.01,-0.11,0.01
7:38:23 PM,-9.26,0.54,3.46,-0.03,-0.02,0.01
7:38:23 PM,-9.34,0.55,3.39,0.03,0.06,0.01
7:38:24 PM,-9.22,0.52,3.45,-0.08,-0.11,0.01
7:38:24 PM,-9.15,0.66,3.51,0.02,-0.08,0.01
7:38:24 PM,-9.20,0.35,3.52,0.06,0.11,0.01
7:38:24 PM,-9.29,0.40,3.41,0.04,-0.19,0.01
7:38:24 PM,-9.12,0.35,3.53,-0.02,0.05,0.01
7:38:24 PM,-9.45,0.50,3.31,0.04,0.06,0.01
7:38:24 PM,-9.47,0.71,3.35,0.00,-0.04,0.01
7:38:24 PM,-9.56,0.58,3.28,0.02,0.05,0.01
7:38:24 PM,-9.13,0.67,3.50,-0.01,-0.03,0.01
7:38:24 PM,-9.17,0.50,3.51,0.02,-0.04,0.01
7:38:25 PM,-9.50,0.59,3.31,0.01,0.03,0.01
7:38:25 PM,-9.51,0.62,3.27,0.04,-0.02,0.01
7:38:25 PM,-9.41,0.61,3.32,-0.02,0.09,0.01
7:38:25 PM,-9.48,0.58,3.28,-0.01,-0.01,0.01
7:38:25 PM,-9.42,0.65,3.33,0.02,0.04,0.01
7:38:25 PM,-9.59,0.68,3.22,-0.03,0.08,0.01
7:38:25 PM,-9.64,0.73,3.12,0.07,-0.05,0.01
7:38:25 PM,-9.24,0.60,3.37,0.02,-0.06,0.01
7:38:25 PM,-9.52,0.69,3.19,0.06,0.04,0.01
7:38:26 PM,-9.47,0.56,3.18,0.01,0.06,0.01
7:38:26 PM,-9.56,0.62,3.14,-0.03,-0.15,0.01
7:38:26 PM,-9.70,0.61,3.12,0.01,-0.04,0.01
7:38:26 PM,-9.37,0.62,3.31,0.10,-0.20,0.01
7:38:26 PM,-9.25,0.52,3.46,-0.01,-0.03,0.01
7:38:26 PM,-9.20,0.54,3.41,-0.03,0.05,0.01
7:38:26 PM,-9.27,0.67,3.39,0.02,0.10,0.01
7:38:26 PM,-9.35,0.59,3.28,-0.01,-0.01,0.01
7:38:26 PM,-9.42,0.74,3.33,-0.00,-0.05,0.01
7:38:26 PM,-9.50,0.65,3.28,-0.03,-0.00,0.01
7:38:27 PM,-9.23,0.70,3.42,0.02,-0.19,0.01
7:38:27 PM,-9.32,0.55,3.37,-0.03,0.09,0.01
7:38:27 PM,-9.42,0.55,3.32,0.02,0.03,0.01
7:38:27 PM,-9.40,0.54,3.29,0.03,0.02,0.01
7:38:27 PM,-9.25,0.46,3.28,0.04,0.13,0.01
7:38:27 PM,-9.62,0.62,3.10,-0.03,0.12,0.01
7:38:27 PM,-9.45,0.60,3.17,0.06,-0.05,0.01
7:38:27 PM,-9.08,0.58,3.39,-0.02,-0.11,0.01
7:38:27 PM,-9.29,0.73,3.25,-0.03,0.04,0.01
7:38:28 PM,-9.52,0.77,3.15,0.03,0.03,0.01
7:38:28 PM,-9.47,0.67,3.12,-0.00,-0.10,0.01
7:38:28 PM,-9.37,0.78,3.20,0.01,0.01,0.01
7:38:28 PM,-9.46,0.80,3.16,0.03,0.02,0.01
7:38:28 PM,-9.48,0.83,3.16,0.02,-0.00,0.01
7:38:28 PM,-9.58,0.78,3.16,0.01,-0.10,0.01
7:38:28 PM,-9.36,0.72,3.24,-0.01,-0.05,0.01
7:38:28 PM,-9.56,0.61,3.21,0.08,0.04,0.01
7:38:28 PM,-9.57,0.75,3.16,-0.03,0.01,0.01
7:38:28 PM,-9.64,0.92,3.06,-0.03,-0.08,0.01
7:38:29 PM,-9.32,0.65,3.29,0.06,-0.03,0.01
7:38:29 PM,-9.43,0.68,3.23,-0.05,0.00,0.01
7:38:29 PM,-9.43,0.70,3.34,0.09,-0.18,0.01
7:38:29 PM,-9.05,0.64,3.58,-0.04,-0.14,0.01
7:38:29 PM,-9.33,0.91,3.37,0.04,0.16,0.01
7:38:29 PM,-9.31,0.67,3.36,0.03,-0.03,0.01
7:38:29 PM,-9.42,0.80,3.27,0.02,-0.04,0.01
7:38:29 PM,-9.46,0.67,3.32,0.06,-0.10,0.01
7:38:29 PM,-9.26,0.69,3.45,-0.01,-0.12,0.01
7:38:30 PM,-9.15,0.67,3.50,0.01,0.11,0.01
7:38:30 PM,-9.41,0.50,3.29,-0.05,0.00,0.01
7:38:30 PM,-9.60,0.84,3.21,-0.04,-0.17,0.01
7:38:30 PM,-9.34,0.63,3.34,0.05,-0.12,0.01
7:38:30 PM,-9.54,0.69,3.28,0.03,-0.03,0.01
7:38:30 PM,-9.35,0.60,3.41,0.03,0.02,0.01
7:38:30 PM,-9.66,0.67,3.23,0.01,-0.03,0.01
7:38:30 PM,-9.27,0.67,3.37,0.03,0.03,0.01
7:38:30 PM,-9.26,0.60,3.39,-0.04,-0.07,0.01
7:38:30 PM,-9.33,0.72,3.36,0.02,0.14,0.01
7:38:31 PM,-9.33,0.62,3.33,-0.00,-0.11,0.01
7:38:31 PM,-9.46,0.70,3.32,0.03,-0.10,0.01
7:38:31 PM,-8.97,0.53,3.57,-0.05,-0.08,0.01
7:38:31 PM,-9.16,0.62,3.45,-0.04,0.13,0.01
7:38:31 PM,-9.46,0.75,3.22,0.03,0.01,0.01
7:38:31 PM,-9.38,0.63,3.22,0.01,-0.06,0.01
7:38:31 PM,-9.40,0.79,3.28,0.01,0.08,0.01
7:38:31 PM,-9.47,0.72,3.20,-0.02,0.05,0.01
7:38:31 PM,-9.52,0.82,3.16,0.01,0.06,0.01
7:38:32 PM,-9.40,0.65,3.21,0.02,0.08,0.01
7:38:32 PM,-9.57,0.78,3.14,0.05,0.00,0.01
7:38:32 PM,-9.31,0.63,3.24,0.00,-0.09,0.01
7:38:32 PM,-9.34,0.80,3.26,-0.03,-0.04,0.01
7:38:32 PM,-9.50,0.67,3.11,-0.05,0.02,0.01
7:38:32 PM,-9.52,0.81,3.15,0.00,0.10,0.01
7:38:32 PM,-9.54,0.72,3.10,0.01,-0.03,0.01
7:38:32 PM,-9.41,0.78,3.20,0.04,-0.05,0.01
7:38:32 PM,-9.45,0.79,3.20,-0.03,-0.01,0.01
7:38:32 PM,-9.64,0.65,3.09,0.05,0.02,0.01
7:38:33 PM,-9.49,0.73,3.16,0.02,-0.02,0.01
7:38:33 PM,-9.38,0.66,3.24,0.01,0.04,0.01
7:38:33 PM,-9.24,0.75,3.33,0.02,0.01,0.01
7:38:33 PM,-9.46,0.93,3.16,-0.03,0.02,0.01
7:38:33 PM,-9.45,0.91,3.15,0.04,0.07,0.01
7:38:33 PM,-9.53,0.84,3.13,0.01,0.04,0.01
7:38:33 PM,-9.58,0.80,3.07,0.01,-0.01,0.01
7:38:33 PM,-9.32,0.88,3.26,-0.03,-0.10,0.01
7:38:33 PM,-9.16,0.77,3.31,0.00,-0.13,0.01
7:38:34 PM,-9.29,0.78,3.28,0.01,0.02,0.01
7:38:34 PM,-9.62,0.94,3.09,0.02,0.05,0.01
7:38:34 PM,-9.44,0.84,3.17,0.03,0.01,0.01
7:38:34 PM,-9.42,0.90,3.20,-0.04,-0.00,0.01
7:38:34 PM,-9.35,1.03,3.28,0.03,-0.11,0.01
7:38:34 PM,-9.42,0.81,3.19,0.03,-0.04,0.01
7:38:34 PM,-9.57,0.79,3.12,-0.01,-0.06,0.01
7:38:34 PM,-9.47,0.81,3.15,0.05,0.11,0.01
7:38:34 PM,-9.65,0.93,3.11,-0.00,0.09,0.01
7:38:35 PM,-9.23,0.78,3.33,0.02,-0.03,0.01
7:38:35 PM,-9.45,1.03,3.21,0.00,-0.11,0.01
7:38:35 PM,-9.18,0.57,3.24,0.03,0.13,0.01
7:38:35 PM,-9.73,0.71,2.92,0.00,-0.12,0.01
7:38:35 PM,-9.39,0.63,3.15,-0.00,0.03,0.01
7:38:35 PM,-9.44,0.76,3.14,0.02,0.01,0.01
7:38:35 PM,-9.28,0.67,3.22,0.03,-0.02,0.01
7:38:35 PM,-9.25,0.65,3.22,-0.03,0.07,0.01
7:38:35 PM,-9.41,0.60,3.17,0.02,0.04,0.01
7:38:35 PM,-9.38,0.68,3.14,0.00,0.06,0.01
7:38:36 PM,-9.26,0.79,3.18,-0.00,-0.06,0.01
7:38:36 PM,-9.61,0.74,3.06,0.05,-0.04,0.01
7:38:36 PM,-9.32,0.67,3.24,-0.02,-0.07,0.01
7:38:36 PM,-9.63,0.48,3.06,-0.04,-0.12,0.01
7:38:36 PM,-9.22,0.73,3.29,0.01,0.01,0.01
7:38:36 PM,-9.01,0.53,3.46,-0.01,0.04,0.01
7:38:36 PM,-9.46,0.62,3.20,-0.04,0.09,0.01
7:38:36 PM,-9.97,1.07,2.84,0.11,-0.09,0.01
7:38:36 PM,-9.50,0.84,3.17,-0.01,-0.12,0.01
7:38:37 PM,-9.40,0.74,3.28,-0.02,-0.11,0.01
7:38:37 PM,-9.30,0.72,3.26,-0.00,0.01,0.01
7:38:37 PM,-9.47,0.69,3.26,0.01,-0.06,0.01
7:38:37 PM,-9.31,0.71,3.25,0.00,-0.07,0.01
7:38:37 PM,-9.79,0.88,3.04,-0.02,0.01,0.01
7:38:37 PM,-9.19,0.77,3.39,0.01,-0.14,0.01
7:38:37 PM,-9.49,1.01,3.28,0.02,-0.04,0.01
7:38:37 PM,-9.49,0.85,3.23,-0.02,0.02,0.01
7:38:37 PM,-9.30,0.81,3.27,0.02,-0.00,0.01
7:38:37 PM,-9.16,0.77,3.39,0.05,0.11,0.01
7:38:38 PM,-9.57,0.94,3.24,0.03,0.04,0.01
7:38:38 PM,-9.36,0.87,3.30,0.03,-0.14,0.01
7:38:38 PM,-9.46,0.97,3.24,0.06,-0.05,0.01
7:38:38 PM,-8.94,0.33,3.32,-0.01,0.09,0.01
7:38:38 PM,-9.56,0.81,3.23,0.01,0.01,0.01
7:38:38 PM,-9.24,0.91,3.34,-0.03,0.04,0.01
7:38:38 PM,-9.35,0.85,3.25,0.03,0.03,0.01
7:38:38 PM,-9.42,0.92,3.24,0.03,0.03,0.01
7:38:38 PM,-9.39,0.81,3.31,0.03,0.05,0.01
7:38:39 PM,-9.58,1.01,3.13,-0.01,-0.01,0.01
7:38:39 PM,-9.67,0.97,3.02,0.03,0.03,0.01
7:38:39 PM,-9.26,0.76,3.26,0.01,0.03,0.01
7:38:39 PM,-9.50,0.81,3.15,0.03,-0.09,0.01
7:38:39 PM,-9.24,0.86,3.39,0.00,-0.07,0.01
7:38:39 PM,-9.52,1.05,3.29,0.01,0.03,0.01
7:38:39 PM,-9.49,0.98,3.24,-0.00,-0.03,0.01
7:38:39 PM,-9.54,0.90,3.18,-0.00,-0.06,0.01
7:38:39 PM,-9.20,0.87,3.39,0.02,-0.15,0.01
7:38:39 PM,-9.23,0.91,3.41,0.03,-0.06,0.01
7:38:40 PM,-9.18,0.92,3.44,0.02,0.03,0.01
7:38:40 PM,-9.21,0.94,3.37,0.03,0.15,0.01
7:38:40 PM,-9.47,0.95,3.20,0.04,-0.08,0.01
7:38:40 PM,-9.14,0.79,3.39,-0.03,0.00,0.01
7:38:40 PM,-9.36,0.94,3.24,0.03,0.06,0.01
7:38:40 PM,-9.25,1.03,3.38,-0.03,-0.08,0.01
7:38:40 PM,-9.54,1.03,3.19,-0.01,0.07,0.01
7:38:40 PM,-9.07,0.82,3.45,0.00,-0.06,0.01
7:38:40 PM,-9.63,0.90,3.15,0.04,0.04,0.01
7:38:41 PM,-9.70,1.14,3.10,0.06,0.12,0.01
7:38:41 PM,-9.34,0.96,3.34,0.02,-0.11,0.01
7:38:41 PM,-9.17,0.92,3.35,-0.03,0.02,0.01
7:38:41 PM,-9.37,1.06,3.38,0.03,-0.17,0.01
7:38:41 PM,-9.14,0.88,3.46,0.03,0.11,0.01
7:38:41 PM,-9.40,1.05,3.30,0.05,0.10,0.01
7:38:41 PM,-9.39,1.13,3.30,-0.01,0.05,0.01
7:38:41 PM,-9.61,1.28,3.06,0.01,-0.12,0.01
7:38:41 PM,-9.17,1.09,3.40,0.01,-0.14,0.01
7:38:41 PM,-9.37,0.99,3.29,0.00,0.05,0.01
7:38:42 PM,-9.47,1.00,3.22,-0.02,-0.13,0.01
7:38:42 PM,-9.21,1.05,3.39,-0.02,0.12,0.01
7:38:42 PM,-9.16,1.01,3.39,0.01,0.15,0.01
7:38:42 PM,-9.23,0.80,3.39,-0.02,0.19,0.01
7:38:42 PM,-9.27,1.02,3.32,0.07,0.02,0.01
7:38:42 PM,-9.25,1.03,3.38,-0.03,-0.07,0.01
7:38:42 PM,-9.22,0.99,3.33,0.01,-0.09,0.01
7:38:42 PM,-9.31,0.78,3.32,-0.01,-0.00,0.01
7:38:42 PM,-9.30,1.08,3.34,-0.02,0.08,0.01
7:38:43 PM,-9.13,0.88,3.46,0.03,-0.08,0.01
7:38:43 PM,-9.30,1.00,3.40,0.03,0.06,0.01
7:38:43 PM,-9.36,1.13,3.28,0.00,-0.02,0.01
7:38:43 PM,-9.36,1.07,3.32,0.02,-0.04,0.01
7:38:43 PM,-9.46,1.04,3.20,0.00,-0.01,0.01
7:38:43 PM,-9.39,0.90,3.28,0.03,-0.02,0.01
7:38:43 PM,-9.37,1.16,3.28,0.00,0.03,0.01
7:38:43 PM,-9.32,1.01,3.34,0.04,0.04,0.01
7:38:43 PM,-9.37,1.06,3.24,0.01,0.03,0.01
7:38:43 PM,-9.41,1.02,3.28,-0.01,-0.00,0.01
7:38:44 PM,-9.21,1.08,3.38,0.01,0.04,0.01
7:38:44 PM,-9.38,1.09,3.28,-0.01,-0.05,0.01
7:38:44 PM,-9.31,1.02,3.35,-0.00,-0.05,0.01
7:38:44 PM,-9.34,1.14,3.27,-0.02,0.01,0.01
7:38:44 PM,-9.47,1.18,3.16,0.01,-0.09,0.01
7:38:44 PM,-9.48,1.06,3.18,0.01,-0.01,0.01
7:38:44 PM,-9.46,1.04,3.19,-0.00,-0.01,0.01
7:38:44 PM,-9.39,1.02,3.20,-0.00,-0.04,0.01
7:38:44 PM,-9.20,1.10,3.36,0.03,-0.06,0.01
7:38:45 PM,-9.52,1.17,3.19,0.02,-0.03,0.01
7:38:45 PM,-9.27,1.01,3.30,-0.01,-0.06,0.01
7:38:45 PM,-9.38,1.15,3.26,0.02,0.01,0.01
7:38:45 PM,-9.46,1.04,3.24,0.00,0.04,0.01
7:38:45 PM,-9.26,0.97,3.34,0.03,0.07,0.01
7:38:45 PM,-9.23,1.01,3.35,0.03,0.02,0.01
7:38:45 PM,-9.39,0.99,3.29,0.01,-0.09,0.01
7:38:45 PM,-9.31,1.11,3.29,-0.03,-0.10,0.01
7:38:45 PM,-9.16,1.06,3.37,-0.00,-0.02,0.01
7:38:46 PM,-9.45,1.10,3.21,-0.00,0.03,0.01
7:38:46 PM,-9.12,1.00,3.31,-0.00,0.05,0.01
7:38:46 PM,-9.55,0.95,3.11,0.05,0.08,0.01
7:38:46 PM,-9.43,1.11,3.19,-0.02,-0.08,0.01
7:38:46 PM,-9.30,1.10,3.24,0.02,-0.00,0.01
7:38:46 PM,-9.40,1.03,3.20,0.00,0.01,0.01
7:38:46 PM,-9.32,1.01,3.18,0.01,-0.05,0.01
7:38:46 PM,-9.43,1.14,3.18,-0.00,-0.03,0.01
7:38:46 PM,-9.28,1.04,3.24,0.02,-0.04,0.01
7:38:46 PM,-9.26,1.09,3.28,0.02,-0.02,0.01
7:38:47 PM,-9.48,1.16,3.19,0.02,0.07,0.01
7:38:47 PM,-9.32,1.21,3.25,0.02,0.01,0.01
7:38:47 PM,-9.38,1.08,3.22,0.02,-0.02,0.01
7:38:47 PM,-9.22,1.06,3.25,0.04,0.03,0.01
7:38:47 PM,-9.45,1.12,3.18,-0.00,-0.04,0.01
7:38:47 PM,-9.51,1.12,3.15,0.00,-0.01,0.01
7:38:47 PM,-9.39,1.06,3.18,0.02,0.02,0.01
7:38:47 PM,-9.67,1.39,3.10,0.06,0.04,0.01
7:38:47 PM,-9.39,1.25,3.17,-0.04,-0.12,0.01
7:38:48 PM,-9.43,1.19,3.13,0.04,-0.01,0.01
7:38:48 PM,-9.30,1.20,3.20,0.00,0.02,0.01
7:38:48 PM,-9.47,1.23,3.09,0.02,-0.02,0.01
7:38:48 PM,-9.45,1.29,3.09,0.01,-0.02,0.01
7:38:48 PM,-9.31,1.15,3.20,0.05,-0.00,0.01
7:38:48 PM,-9.49,1.30,3.06,0.03,0.01,0.01
7:38:48 PM,-9.41,1.08,3.16,0.03,0.07,0.01
7:38:48 PM,-9.72,1.18,3.00,-0.00,0.03,0.01
7:38:48 PM,-9.55,1.19,3.04,0.02,0.02,0.01
7:38:48 PM,-9.44,1.17,3.13,0.02,-0.08,0.01
7:38:49 PM,-9.49,1.19,3.15,0.03,-0.00,0.01
7:38:49 PM,-9.57,1.33,3.06,0.01,0.01,0.01
7:38:49 PM,-9.83,1.40,2.88,0.02,0.06,0.01
7:38:49 PM,-9.53,1.28,3.00,0.01,-0.01,0.01
7:38:49 PM,-9.45,1.22,3.06,0.05,0.04,0.01
7:38:49 PM,-9.42,1.50,3.07,0.06,-0.10,0.01
7:38:49 PM,-9.47,1.22,3.02,-0.03,0.06,0.01
7:38:49 PM,-9.78,1.39,2.83,0.05,0.05,0.01
7:38:49 PM,-9.63,1.32,2.92,0.01,-0.10,0.01
7:38:50 PM,-9.43,1.34,3.05,-0.00,-0.07,0.01
7:38:50 PM,-9.54,1.28,2.97,0.02,-0.03,0.01
7:38:50 PM,-9.34,1.15,3.04,0.00,-0.08,0.01
7:38:50 PM,-9.69,1.39,3.00,0.01,-0.09,0.01
7:38:50 PM,-9.38,1.19,3.09,-0.01,0.04,0.01
7:38:50 PM,-9.57,1.35,3.02,0.01,-0.03,0.01
7:38:50 PM,-9.63,1.38,2.98,0.02,-0.12,0.01
7:38:50 PM,-9.29,1.20,3.15,-0.02,-0.06,0.01
7:38:50 PM,-9.27,1.26,3.12,-0.00,0.04,0.01
7:38:50 PM,-9.60,1.46,2.98,-0.01,-0.03,0.01
7:38:51 PM,-9.40,1.27,3.05,0.01,-0.01,0.01
7:38:51 PM,-9.66,1.36,2.87,0.02,0.04,0.01
7:38:51 PM,-9.60,1.54,2.97,0.03,-0.06,0.01
7:38:51 PM,-9.30,1.39,3.16,-0.02,-0.12,0.01
7:38:51 PM,-9.37,1.45,3.11,-0.01,-0.03,0.01
7:38:51 PM,-9.67,1.50,2.96,0.01,-0.15,0.01
7:38:51 PM,-9.35,1.59,3.11,0.07,0.13,0.01
7:38:51 PM,-9.45,1.64,3.13,0.01,-0.01,0.01
7:38:51 PM,-9.33,1.41,3.13,0.00,0.00,0.01
7:38:52 PM,-9.34,1.44,3.13,0.01,0.00,0.01
7:38:52 PM,-9.23,1.55,3.24,-0.01,-0.12,0.01
7:38:52 PM,-9.09,1.32,3.19,0.00,0.02,0.01
7:38:52 PM,-9.13,1.53,3.29,-0.00,-0.04,0.01
7:38:52 PM,-9.30,1.53,3.18,0.02,-0.02,0.01
7:38:52 PM,-9.79,1.52,2.82,-0.04,-0.16,0.01
7:38:52 PM,-9.39,1.47,3.11,0.04,0.04,0.01
7:38:52 PM,-9.29,1.48,3.13,-0.01,-0.01,0.01
7:38:52 PM,-9.25,1.46,3.15,0.02,-0.03,0.01
7:38:52 PM,-9.40,1.60,3.10,-0.00,0.04,0.01
7:38:53 PM,-9.43,1.59,3.08,0.03,0.05,0.01
7:38:53 PM,-9.57,1.56,3.00,0.02,-0.07,0.01
7:38:53 PM,-9.29,1.53,3.13,0.02,-0.04,0.01
7:38:53 PM,-9.44,1.57,3.05,0.01,-0.03,0.01
7:38:53 PM,-9.46,1.70,3.02,-0.02,-0.05,0.01
7:38:53 PM,-8.87,1.53,3.32,-0.03,-0.10,0.01
7:38:53 PM,-9.35,1.53,3.15,-0.01,-0.06,0.01
7:38:53 PM,-9.05,1.53,3.28,0.07,-0.09,0.01
7:38:53 PM,-9.47,1.47,2.97,0.09,0.01,0.01
7:38:54 PM,-9.34,1.56,2.98,0.03,0.05,0.01
7:38:54 PM,-9.45,1.70,3.02,0.01,0.06,0.01
7:38:54 PM,-9.48,1.66,2.94,0.05,0.00,0.01
7:38:54 PM,-9.58,1.75,2.95,0.01,-0.05,0.01
7:38:54 PM,-9.30,1.57,3.10,0.00,-0.03,0.01
7:38:54 PM,-9.51,1.59,2.94,0.03,0.07,0.01
7:38:54 PM,-9.55,1.69,2.97,0.02,-0.01,0.01
7:38:54 PM,-9.47,1.68,2.97,0.01,0.00,0.01
7:38:54 PM,-9.45,1.69,2.99,-0.03,-0.08,0.01
7:38:54 PM,-9.54,1.66,2.98,0.02,0.04,0.01
7:38:55 PM,-9.68,1.70,2.91,-0.00,-0.04,0.01
7:38:55 PM,-9.39,1.71,3.00,0.01,0.01,0.01
7:38:55 PM,-9.46,1.69,2.99,0.02,-0.06,0.01
7:38:55 PM,-9.50,1.74,2.95,-0.02,-0.09,0.01
7:38:55 PM,-9.30,1.69,3.08,-0.01,-0.07,0.01
7:38:55 PM,-9.57,1.64,2.91,0.04,0.03,0.01
7:38:55 PM,-9.52,1.77,2.97,0.01,0.05,0.01
7:38:55 PM,-9.38,1.72,3.06,0.00,0.00,0.01
7:38:55 PM,-9.42,1.66,3.00,-0.02,-0.01,0.01
7:38:56 PM,-9.34,1.80,3.12,-0.02,-0.03,0.01
7:38:56 PM,-9.56,1.78,2.93,0.01,-0.11,0.01
7:38:56 PM,-9.39,1.61,3.08,-0.01,-0.02,0.01
7:38:56 PM,-9.46,1.77,3.06,0.00,0.04,0.01
7:38:56 PM,-9.51,1.75,2.99,0.01,0.03,0.01
7:38:56 PM,-9.52,1.76,3.01,0.01,-0.03,0.01
7:38:56 PM,-9.41,1.68,3.04,0.02,0.06,0.01
7:38:56 PM,-9.27,1.67,3.15,0.00,-0.09,0.01
7:38:56 PM,-9.39,1.59,3.04,0.00,-0.02,0.01
7:38:56 PM,-9.44,1.71,3.03,-0.00,0.08,0.01
7:38:57 PM,-9.48,1.70,3.03,0.01,0.03,0.01
7:38:57 PM,-9.59,1.82,2.90,0.00,-0.00,0.01
7:38:57 PM,-9.34,1.63,3.10,0.02,-0.01,0.01
7:38:57 PM,-9.45,1.70,2.99,0.01,0.05,0.01
7:38:57 PM,-9.53,1.75,3.00,0.02,-0.04,0.01
7:38:57 PM,-9.34,1.75,3.12,0.01,-0.05,0.01
7:38:57 PM,-9.49,1.77,3.08,0.01,-0.10,0.01
7:38:57 PM,-9.27,1.71,3.17,-0.00,-0.01,0.01
7:38:57 PM,-9.19,1.64,3.21,0.02,-0.04,0.01
7:38:58 PM,-9.27,1.61,3.20,0.01,0.01,0.01
7:38:58 PM,-9.31,1.65,3.19,0.02,0.10,0.01
7:38:58 PM,-9.38,1.72,3.09,0.01,0.04,0.01
7:38:58 PM,-9.41,1.73,3.07,0.02,0.00,0.01
7:38:58 PM,-9.51,1.77,3.00,0.01,-0.02,0.01
7:38:58 PM,-9.36,1.73,3.08,-0.00,-0.04,0.01
7:38:58 PM,-9.36,1.78,3.10,0.01,0.01,0.01
7:38:58 PM,-9.53,1.84,2.95,0.02,0.03,0.01
7:38:58 PM,-9.44,1.76,3.00,0.01,0.03,0.01
7:38:59 PM,-9.28,1.79,3.12,0.04,-0.02,0.01
7:38:59 PM,-9.58,1.86,2.90,0.03,-0.07,0.01
7:38:59 PM,-9.48,1.79,2.93,-0.00,-0.07,0.01
7:38:59 PM,-9.42,1.78,2.97,0.02,-0.01,0.01
7:38:59 PM,-9.46,1.75,2.97,-0.01,-0.04,0.01
7:38:59 PM,-9.49,1.81,2.95,0.02,-0.00,0.01
7:38:59 PM,-9.37,1.60,3.00,0.01,0.07,0.01
7:38:59 PM,-9.60,1.74,2.85,0.00,-0.02,0.01
7:38:59 PM,-9.60,1.68,2.89,0.03,0.10,0.01
7:38:59 PM,-9.56,1.69,2.89,0.03,-0.01,0.01
7:39:00 PM,-9.53,1.72,2.94,0.01,0.01,0.01
7:39:00 PM,-9.46,1.65,2.94,0.02,0.01,0.01
7:39:00 PM,-9.45,1.62,3.04,0.02,-0.03,0.01
7:39:00 PM,-9.34,1.68,3.06,0.01,0.03,0.01
7:39:00 PM,-9.19,1.61,3.11,0.01,-0.05,0.01
7:39:00 PM,-9.65,1.96,3.01,-0.11,0.02,0.01
7:39:00 PM,-9.20,1.45,3.10,0.04,0.04,0.01
7:39:00 PM,-9.49,1.67,3.01,-0.02,0.06,0.01
7:39:00 PM,-9.51,1.68,2.91,0.05,-0.04,0.01
7:39:01 PM,-9.58,1.50,2.89,0.04,-0.09,0.01
7:39:01 PM,-9.20,1.49,3.13,-0.01,-0.09,0.01
7:39:01 PM,-9.58,1.58,2.99,0.05,-0.04,0.01
7:39:01 PM,-9.39,1.50,3.03,0.03,0.02,0.01
7:39:01 PM,-9.33,1.52,3.04,0.03,-0.02,0.01
7:39:01 PM,-9.31,1.57,3.14,-0.00,0.02,0.01
7:39:01 PM,-9.42,1.57,3.00,0.01,-0.04,0.01
7:39:01 PM,-9.45,1.64,3.11,-0.03,0.01,0.01
7:39:01 PM,-9.26,1.58,3.17,-0.01,0.05,0.01
7:39:01 PM,-9.32,1.57,3.12,-0.01,-0.04,0.01
7:39:02 PM,-9.32,1.56,3.15,0.03,0.00,0.01
7:39:02 PM,-9.51,1.58,3.00,-0.01,-0.02,0.01
7:39:02 PM,-9.37,1.62,3.17,0.01,-0.03,0.01
7:39:02 PM,-9.20,1.57,3.28,-0.02,-0.06,0.01
7:39:02 PM,-9.43,1.57,3.11,-0.01,0.03,0.01
7:39:02 PM,-9.51,1.74,3.00,0.03,-0.01,0.01
7:39:02 PM,-9.47,1.63,2.99,0.03,0.05,0.01
7:39:02 PM,-9.36,1.46,3.02,-0.01,-0.02,0.01
7:39:02 PM,-9.41,1.57,3.23,0.05,0.02,0.01
7:39:03 PM,-9.48,1.62,3.08,-0.01,-0.05,0.01
7:39:03 PM,-9.41,1.64,3.11,0.01,0.03,0.01
7:39:03 PM,-9.49,1.78,3.08,0.00,-0.00,0.01
7:39:03 PM,-9.57,1.62,2.90,-0.01,0.05,0.01
7:39:03 PM,-8.67,1.44,3.33,-0.03,-0.12,0.01
7:39:03 PM,-9.42,1.82,3.06,0.01,-0.07,0.01
7:39:03 PM,-9.33,1.69,3.11,0.00,-0.04,0.01
7:39:03 PM,-9.44,1.73,3.04,0.01,-0.05,0.01
7:39:03 PM,-9.33,1.62,3.09,0.05,-0.06,0.01
7:39:03 PM,-9.39,1.72,3.11,0.00,-0.04,0.01
7:39:04 PM,-9.37,1.72,3.05,0.02,0.05,0.01
7:39:04 PM,-9.54,1.73,2.98,0.03,0.01,0.01
7:39:04 PM,-9.37,1.73,3.18,-0.01,0.08,0.01
7:39:04 PM,-9.44,1.63,3.00,0.01,-0.04,0.01
7:39:04 PM,-9.37,1.70,3.11,0.01,0.01,0.01
7:39:04 PM,-9.33,1.70,3.08,0.01,0.02,0.01
7:39:04 PM,-9.74,1.72,2.94,0.03,-0.07,0.01
7:39:04 PM,-9.61,1.80,2.97,-0.03,0.01,0.01
7:39:04 PM,-9.33,1.72,3.12,0.01,-0.09,0.01
7:39:05 PM,-9.39,1.64,3.10,0.01,-0.00,0.01
7:39:05 PM,-9.57,1.73,2.98,0.01,-0.01,0.01
7:39:05 PM,-9.35,1.73,3.08,0.01,-0.03,0.01
7:39:05 PM,-9.38,1.79,3.06,0.02,0.03,0.01
7:39:05 PM,-9.38,1.79,3.03,0.01,0.01,0.01
7:39:05 PM,-9.29,1.63,3.08,0.00,-0.03,0.01
7:39:05 PM,-9.41,1.69,3.01,0.02,0.02,0.01
7:39:05 PM,-9.49,1.73,3.02,0.02,-0.06,0.01
7:39:05 PM,-9.35,1.71,3.06,0.02,-0.07,0.01
7:39:05 PM,-9.44,1.70,3.03,0.01,-0.04,0.01
7:39:06 PM,-9.30,1.65,3.08,0.02,0.03,0.01
7:39:06 PM,-9.41,1.59,3.00,0.02,0.02,0.01
7:39:06 PM,-9.60,1.67,2.94,0.03,-0.08,0.01
7:39:06 PM,-9.39,1.54,3.01,0.02,-0.02,0.01
7:39:06 PM,-9.39,1.54,2.99,-0.01,0.02,0.01
7:39:06 PM,-9.64,1.79,2.92,-0.04,0.01,0.01
7:39:06 PM,-9.56,1.52,2.89,0.02,-0.06,0.01
7:39:06 PM,-9.50,1.54,2.93,0.02,0.02,0.01
7:39:06 PM,-9.48,1.62,2.96,0.01,0.05,0.01
7:39:07 PM,-9.49,1.50,2.93,-0.03,-0.06,0.01
7:39:07 PM,-9.32,1.48,2.99,-0.01,-0.02,0.01
7:39:07 PM,-9.40,1.61,2.99,-0.00,-0.06,0.01
7:39:07 PM,-9.51,1.50,2.89,0.04,0.01,0.01
7:39:07 PM,-9.54,1.61,2.88,-0.00,-0.06,0.01
7:39:07 PM,-9.55,1.56,2.90,0.01,-0.02,0.01
7:39:07 PM,-9.62,1.73,2.93,0.02,-0.04,0.01
7:39:07 PM,-9.34,1.54,3.00,0.01,-0.11,0.01
7:39:07 PM,-9.51,1.69,2.94,-0.01,-0.01,0.01
7:39:07 PM,-9.53,1.56,2.96,0.01,-0.08,0.01
7:39:08 PM,-9.33,1.59,3.00,-0.00,0.04,0.01
7:39:08 PM,-9.67,1.64,2.90,0.05,0.01,0.01
7:39:08 PM,-9.23,1.45,3.04,0.00,-0.01,0.01
7:39:08 PM,-9.69,1.65,2.83,0.04,0.02,0.01
7:39:08 PM,-9.31,1.51,3.01,0.01,-0.00,0.01
7:39:08 PM,-9.55,1.68,3.00,0.02,0.02,0.01
7:39:08 PM,-9.45,1.60,2.90,0.01,0.02,0.01
7:39:08 PM,-9.59,1.53,2.89,0.03,-0.01,0.01
7:39:08 PM,-9.58,1.84,2.87,-0.03,-0.07,0.01
7:39:09 PM,-9.38,1.50,3.05,0.03,-0.07,0.01
7:39:09 PM,-9.42,1.61,2.97,0.02,0.03,0.01
7:39:09 PM,-9.45,1.58,2.92,0.05,-0.05,0.01
7:39:09 PM,-9.47,1.53,2.94,0.02,-0.02,0.01
7:39:09 PM,-9.54,1.61,2.88,0.01,-0.04,0.01
7:39:09 PM,-9.42,1.57,2.99,0.01,-0.06,0.01
7:39:09 PM,-9.40,1.59,3.02,-0.01,-0.03,0.01
7:39:09 PM,-9.47,1.58,2.97,-0.00,0.03,0.01
7:39:09 PM,-9.54,1.65,2.91,0.00,0.00,0.01
7:39:09 PM,-9.45,1.54,2.98,0.04,-0.02,0.01
7:39:10 PM,-9.35,1.25,2.94,-0.06,0.06,0.01
7:39:10 PM,-9.38,1.56,2.97,0.01,0.01,0.01
7:39:10 PM,-9.63,1.58,2.85,0.02,-0.04,0.01
7:39:10 PM,-9.62,1.53,2.91,0.05,-0.07,0.01
7:39:10 PM,-9.42,1.56,2.95,0.01,0.05,0.01
7:39:10 PM,-9.31,1.61,3.08,0.00,-0.02,0.01
7:39:10 PM,-9.47,1.61,2.98,0.02,-0.00,0.01
7:39:10 PM,-9.48,1.54,2.97,0.01,-0.01,0.01
7:39:10 PM,-9.50,1.50,2.91,0.01,-0.02,0.01
7:39:11 PM,-9.30,1.48,3.01,-0.03,-0.06,0.01
7:39:11 PM,-9.50,1.43,2.94,0.00,0.01,0.01
7:39:11 PM,-9.64,1.57,2.89,0.02,-0.01,0.01
7:39:11 PM,-9.32,1.47,3.07,0.00,0.01,0.01
7:39:11 PM,-9.52,1.55,2.99,0.01,-0.04,0.01
7:39:11 PM,-9.44,1.55,2.95,0.00,-0.00,0.01
7:39:11 PM,-9.38,1.49,3.02,0.00,-0.06,0.01
7:39:11 PM,-9.51,1.57,2.95,-0.02,0.06,0.01
7:39:11 PM,-9.53,1.61,2.94,0.02,-0.02,0.01
7:39:12 PM,-9.54,1.51,2.92,0.01,0.00,0.01
7:39:12 PM,-9.29,1.56,3.06,-0.00,-0.02,0.01
7:39:12 PM,-9.53,1.59,2.91,0.07,-0.03,0.01
7:39:12 PM,-9.56,1.55,2.89,0.01,-0.01,0.01
7:39:12 PM,-9.51,1.55,2.95,-0.01,-0.02,0.01
7:39:12 PM,-9.48,1.48,2.91,0.01,0.02,0.01
7:39:12 PM,-9.31,1.47,3.00,-0.00,0.01,0.01
7:39:12 PM,-9.48,1.54,2.91,0.01,-0.04,0.01
7:39:12 PM,-9.64,1.68,2.85,0.03,0.04,0.01
7:39:12 PM,-9.62,1.48,2.86,0.03,0.01,0.01
7:39:13 PM,-9.52,1.58,2.91,-0.02,-0.08,0.01
7:39:13 PM,-9.49,1.59,2.90,0.02,-0.02,0.01
7:39:13 PM,-9.46,1.55,2.92,-0.00,0.00,0.01
7:39:13 PM,-9.47,1.48,2.97,0.03,0.01,0.01
7:39:13 PM,-9.71,1.61,2.84,-0.01,-0.06,0.01
7:39:13 PM,-9.40,1.60,2.98,0.05,-0.04,0.01
7:39:13 PM,-9.57,1.58,2.90,-0.01,-0.01,0.01
7:39:13 PM,-9.32,1.65,3.06,0.02,-0.04,0.01
7:39:13 PM,-9.48,1.62,2.93,0.01,-0.04,0.01
7:39:14 PM,-9.47,1.45,2.96,0.05,-0.04,0.01
7:39:14 PM,-9.33,1.49,3.05,0.01,-0.04,0.01
7:39:14 PM,-9.41,1.61,3.03,0.01,-0.10,0.01
7:39:14 PM,-9.39,1.47,3.00,0.01,-0.01,0.01
7:39:14 PM,-9.62,1.68,2.92,0.03,-0.04,0.01
7:39:14 PM,-9.34,1.62,3.06,0.01,0.02,0.01
7:39:14 PM,-9.36,1.55,3.02,0.01,-0.01,0.01
7:39:14 PM,-9.41,1.53,3.00,0.00,0.05,0.01
7:39:14 PM,-9.55,1.67,2.99,0.01,0.00,0.01
7:39:14 PM,-9.53,1.58,2.91,0.01,0.03,0.01
7:39:15 PM,-9.60,1.61,2.94,0.02,-0.05,0.01
7:39:15 PM,-9.49,1.54,2.98,-0.01,0.02,0.01
7:39:15 PM,-9.48,1.57,2.99,-0.01,0.07,0.01
7:39:15 PM,-9.40,1.54,3.03,0.01,0.02,0.01
7:39:15 PM,-9.39,1.50,3.03,0.01,0.04,0.01
7:39:15 PM,-9.43,1.62,3.03,-0.01,-0.03,0.01
7:39:15 PM,-9.53,1.60,3.02,0.04,-0.03,0.01
7:39:15 PM,-9.39,1.56,3.03,0.00,-0.01,0.01
7:39:15 PM,-9.38,1.56,2.98,0.03,-0.03,0.01
7:39:16 PM,-9.53,1.52,2.96,0.00,0.01,0.01
7:39:16 PM,-9.27,1.58,3.03,-0.04,-0.04,0.01
7:39:16 PM,-9.63,1.58,2.87,0.03,-0.00,0.01
7:39:16 PM,-9.53,1.63,2.98,0.02,-0.07,0.01
7:39:16 PM,-9.62,1.53,2.85,0.05,0.06,0.01
7:39:16 PM,-9.23,1.51,3.08,-0.01,-0.08,0.01
7:39:16 PM,-9.66,1.70,2.86,0.03,0.07,0.01
7:39:16 PM,-9.27,1.61,3.08,-0.02,-0.02,0.01
7:39:16 PM,-9.45,1.66,3.01,0.01,0.02,0.01
7:39:16 PM,-9.38,1.58,3.00,-0.01,0.02,0.01
7:39:17 PM,-9.42,1.55,2.99,-0.01,-0.01,0.01
7:39:17 PM,-9.51,1.56,2.92,0.01,-0.02,0.01
7:39:17 PM,-9.49,1.71,3.01,0.02,-0.06,0.01
7:39:17 PM,-9.36,1.49,3.09,0.02,-0.04,0.01
7:39:17 PM,-9.27,1.62,3.16,-0.01,-0.08,0.01
7:39:17 PM,-9.60,1.52,2.91,0.02,-0.04,0.01
7:39:17 PM,-9.41,1.49,3.00,0.03,-0.04,0.01
7:39:17 PM,-9.51,1.54,3.00,0.01,-0.06,0.01
7:39:17 PM,-9.35,1.50,3.09,0.02,0.00,0.01
7:39:18 PM,-10.45,1.50,2.45,0.03,-0.10,0.01
7:39:18 PM,-9.81,1.67,2.88,0.03,0.01,0.01
7:39:18 PM,-9.41,1.51,3.10,0.01,-0.04,0.01
7:39:18 PM,-9.45,1.54,3.07,-0.01,-0.00,0.01
7:39:18 PM,-9.44,1.57,3.05,0.01,-0.10,0.01
7:39:18 PM,-9.68,1.54,2.94,0.00,0.02,0.01
7:39:18 PM,-9.53,1.69,3.01,0.00,-0.04,0.01
7:39:18 PM,-9.34,1.54,3.06,0.04,-0.04,0.01
7:39:18 PM,-9.79,1.61,2.89,0.04,0.05,0.01
7:39:18 PM,-9.42,1.68,3.06,-0.01,-0.03,0.01
7:39:19 PM,-9.47,1.55,2.99,0.02,-0.03,0.01
7:39:19 PM,-9.29,1.61,3.19,0.01,-0.08,0.01
7:39:19 PM,-9.41,1.58,3.09,-0.01,0.08,0.01
7:39:19 PM,-9.43,1.73,3.08,-0.01,0.01,0.01
7:39:19 PM,-9.53,1.69,3.05,0.05,-0.09,0.01
7:39:19 PM,-8.66,1.87,3.55,-0.13,-0.26,0.01
7:39:19 PM,-9.30,1.79,3.19,0.03,-0.03,0.01
7:39:19 PM,-9.31,1.60,3.20,0.02,-0.01,0.01
7:39:19 PM,-9.57,1.72,3.07,0.02,0.07,0.01
7:39:20 PM,-9.26,1.69,3.23,-0.02,-0.06,0.01
7:39:20 PM,-9.29,1.65,3.22,0.01,-0.02,0.01
7:39:20 PM,-9.12,1.55,3.25,0.03,-0.01,0.01
7:39:20 PM,-9.17,1.69,3.25,0.07,0.09,0.01
7:39:20 PM,-8.94,1.57,3.37,-0.02,-0.01,0.01
7:39:20 PM,-9.27,1.42,3.16,-0.04,0.12,0.01
7:39:20 PM,-9.50,1.73,3.05,0.03,0.15,0.01
7:39:20 PM,-9.29,1.66,3.16,0.02,0.04,0.01
7:39:20 PM,-9.67,1.73,3.01,0.06,-0.03,0.01
7:39:20 PM,-9.23,1.62,3.26,-0.01,-0.12,0.01
7:39:21 PM,-9.10,1.53,3.32,-0.00,-0.06,0.01
7:39:21 PM,-9.30,1.85,3.29,-0.03,-0.05,0.01
7:39:21 PM,-9.30,1.64,3.23,-0.01,0.01,0.01
7:39:21 PM,-9.40,1.69,3.25,0.04,-0.01,0.01
7:39:21 PM,-9.35,1.65,3.21,0.01,-0.11,0.01
7:39:21 PM,-9.27,1.58,3.22,0.00,0.09,0.01
7:39:21 PM,-9.21,1.65,3.29,-0.03,-0.05,0.01
7:39:21 PM,-9.13,1.50,3.35,0.01,-0.03,0.01
7:39:21 PM,-9.36,1.71,3.28,0.02,-0.03,0.01
7:39:22 PM,-9.17,1.66,3.33,0.00,-0.01,0.01
7:39:22 PM,-9.28,1.74,3.28,0.02,-0.06,0.01
7:39:22 PM,-9.34,1.72,3.24,0.01,-0.00,0.01
7:39:22 PM,-9.35,1.68,3.21,0.05,-0.02,0.01
7:39:22 PM,-9.15,1.52,3.37,-0.00,-0.02,0.01
7:39:22 PM,-9.36,1.74,3.19,0.01,0.00,0.01
7:39:22 PM,-9.24,1.68,3.29,0.04,0.03,0.01
7:39:22 PM,-9.41,1.66,3.14,0.00,-0.02,0.01
7:39:22 PM,-9.28,1.68,3.29,0.01,0.02,0.01
7:39:23 PM,-9.26,1.74,3.28,0.02,-0.00,0.01
7:39:23 PM,-9.42,1.69,3.17,0.00,-0.00,0.01
7:39:23 PM,-9.30,1.78,3.24,0.00,0.01,0.01
7:39:23 PM,-9.41,1.76,3.15,0.04,0.00,0.01
7:39:23 PM,-9.16,1.71,3.26,-0.04,0.01,0.01
7:39:23 PM,-9.17,1.74,3.22,0.02,-0.00,0.01
7:39:23 PM,-9.51,1.68,3.08,0.01,0.05,0.01
7:39:23 PM,-9.31,1.70,3.17,0.00,0.00,0.01
7:39:23 PM,-9.28,1.78,3.17,-0.01,-0.03,0.01
7:39:23 PM,-9.33,1.92,3.19,0.01,-0.06,0.01
7:39:24 PM,-9.26,1.77,3.17,0.00,-0.04,0.01
7:39:24 PM,-9.35,1.73,3.13,0.02,0.01,0.01
7:39:24 PM,-9.32,1.68,3.08,0.02,-0.05,0.01
7:39:24 PM,-9.37,1.69,3.13,0.03,0.01,0.01
7:39:24 PM,-9.50,1.84,2.99,0.04,-0.01,0.01
7:39:24 PM,-9.47,1.80,3.05,0.04,-0.07,0.01
7:39:24 PM,-9.50,1.59,3.08,0.03,-0.05,0.01
7:39:24 PM,-9.16,1.53,3.29,-0.01,-0.03,0.01
7:39:24 PM,-9.48,1.80,3.11,0.02,0.03,0.01
7:39:25 PM,-9.45,1.62,3.11,0.05,0.04,0.01
7:39:25 PM,-9.36,1.73,3.16,0.02,0.00,0.01
7:39:25 PM,-9.39,1.75,3.12,0.03,-0.06,0.01
7:39:25 PM,-9.39,1.63,3.11,0.01,-0.04,0.01
7:39:25 PM,-9.35,1.58,3.18,0.01,-0.02,0.01
7:39:25 PM,-9.34,1.61,3.17,0.01,-0.03,0.01
7:39:25 PM,-9.34,1.77,3.17,-0.07,-0.05,0.01
7:39:25 PM,-9.34,1.65,3.20,0.02,-0.12,0.01
7:39:25 PM,-9.30,1.61,3.22,-0.00,-0.03,0.01
7:39:25 PM,-9.35,1.65,3.24,0.00,-0.06,0.01
7:39:26 PM,-8.91,1.41,3.36,-0.00,0.09,0.01
7:39:26 PM,-9.23,1.51,3.28,-0.00,0.09,0.01
7:39:26 PM,-9.19,1.56,3.34,0.01,-0.00,0.01
7:39:26 PM,-9.40,1.59,3.18,0.01,-0.03,0.01
7:39:26 PM,-9.34,1.58,3.26,0.02,-0.00,0.01
7:39:26 PM,-9.55,1.57,3.10,0.01,0.01,0.01
7:39:26 PM,-9.33,1.55,3.22,0.04,-0.06,0.01
7:39:26 PM,-9.34,1.58,3.20,0.01,-0.06,0.01
7:39:26 PM,-9.39,1.63,3.25,0.03,-0.05,0.01
7:39:27 PM,-9.37,1.67,3.24,0.01,0.01,0.01
7:39:27 PM,-9.18,1.70,3.34,0.02,-0.02,0.01
7:39:27 PM,-9.35,1.63,3.22,0.01,0.00,0.01
7:39:27 PM,-9.21,1.52,3.27,-0.02,0.04,0.01
7:39:27 PM,-9.06,1.50,3.35,0.01,-0.06,0.01
7:39:27 PM,-9.50,1.65,3.12,0.02,0.12,0.01
7:39:27 PM,-9.23,1.66,3.27,0.03,-0.11,0.01
7:39:27 PM,-9.38,1.62,3.23,0.01,-0.03,0.01
7:39:27 PM,-9.43,1.68,3.23,0.00,-0.04,0.01
7:39:27 PM,-9.50,1.64,3.17,0.01,-0.03,0.01
7:39:28 PM,-9.36,1.66,3.28,-0.00,-0.05,0.01
7:39:28 PM,-9.30,1.60,3.26,0.03,0.03,0.01
7:39:28 PM,-9.11,1.53,3.38,0.00,-0.01,0.01
7:39:28 PM,-9.50,1.59,3.20,0.01,0.06,0.01
7:39:28 PM,-9.27,1.62,3.28,-0.01,0.02,0.01
7:39:28 PM,-9.35,1.60,3.23,0.01,-0.04,0.01
7:39:28 PM,-9.33,1.58,3.24,0.01,0.04,0.01
7:39:28 PM,-9.13,1.48,3.31,0.00,-0.02,0.01
7:39:28 PM,-9.45,1.75,3.21,-0.00,0.01,0.01
7:39:29 PM,-9.17,1.61,3.32,0.04,0.02,0.01
7:39:29 PM,-9.36,1.58,3.25,-0.00,0.05,0.01
7:39:29 PM,-9.22,1.65,3.32,-0.00,-0.02,0.01
7:39:29 PM,-9.22,1.46,3.31,0.01,0.05,0.01
7:39:29 PM,-9.46,1.66,3.18,-0.00,0.03,0.01
7:39:29 PM,-9.48,1.52,3.13,0.02,0.01,0.01
7:39:29 PM,-9.56,1.66,3.10,-0.00,-0.03,0.01
7:39:29 PM,-9.35,1.45,3.19,-0.00,-0.05,0.01
7:39:29 PM,-9.26,1.57,3.26,-0.02,-0.04,0.01
7:39:29 PM,-9.26,1.58,3.28,0.01,-0.01,0.01
7:39:30 PM,-9.28,1.56,3.19,-0.01,0.03,0.01
7:39:30 PM,-9.33,1.54,3.27,0.02,-0.04,0.01
7:39:30 PM,-9.39,1.51,3.20,0.02,-0.03,0.01
7:39:30 PM,-9.34,1.50,3.20,0.01,-0.08,0.01
7:39:30 PM,-9.25,1.49,3.33,0.04,-0.05,0.01
7:39:30 PM,-9.24,1.46,3.32,-0.01,0.05,0.01
7:39:30 PM,-9.03,1.46,3.39,0.01,-0.03,0.01
7:39:30 PM,-9.17,1.55,3.36,0.03,0.01,0.01
7:39:30 PM,-9.38,1.42,3.18,0.00,-0.05,0.01
7:39:31 PM,-9.39,1.43,3.24,0.01,-0.02,0.01
7:39:31 PM,-9.35,1.64,3.22,-0.01,-0.02,0.01
7:39:31 PM,-9.35,1.54,3.23,0.03,0.04,0.01
7:39:31 PM,-9.35,1.57,3.24,-0.00,0.01,0.01
7:39:31 PM,-9.34,1.56,3.22,0.00,0.05,0.01
7:39:31 PM,-9.47,1.63,3.18,-0.02,0.09,0.01
7:39:31 PM,-9.33,1.55,3.18,0.01,-0.03,0.01
7:39:31 PM,-9.56,1.73,3.04,0.01,0.03,0.01
7:39:31 PM,-9.35,1.53,3.12,0.00,0.05,0.01
7:39:31 PM,-9.54,1.51,3.11,0.02,-0.05,0.01
7:39:32 PM,-9.51,1.55,3.11,0.02,-0.06,0.01
7:39:32 PM,-9.27,1.60,3.24,0.01,-0.02,0.01
7:39:32 PM,-9.36,1.51,3.15,0.01,0.02,0.01
7:39:32 PM,-9.36,1.49,3.17,-0.00,0.02,0.01
7:39:32 PM,-9.15,1.51,3.24,-0.00,-0.01,0.01
7:39:32 PM,-9.32,1.53,3.19,0.03,-0.06,0.01
7:39:32 PM,-9.24,1.45,3.21,0.00,-0.00,0.01
7:39:32 PM,-9.41,1.53,3.09,-0.00,0.06,0.01
7:39:32 PM,-9.32,1.51,3.13,0.02,-0.03,0.01
7:39:33 PM,-9.45,1.57,3.09,0.05,0.04,0.01
7:39:33 PM,-9.28,1.42,3.11,0.00,0.03,0.01
7:39:33 PM,-9.48,1.56,3.09,0.02,-0.09,0.01
7:39:33 PM,-9.36,1.47,3.14,0.03,0.01,0.01
7:39:33 PM,-9.48,1.58,3.11,0.01,-0.07,0.01
7:39:33 PM,-9.29,1.39,3.16,0.00,-0.00,0.01
7:39:33 PM,-9.59,1.67,3.07,0.00,-0.02,0.01
7:39:33 PM,-9.29,1.58,3.15,0.01,-0.08,0.01
7:39:33 PM,-9.52,1.62,3.03,0.02,0.02,0.01
7:39:33 PM,-9.41,1.60,3.15,0.03,0.00,0.01
7:39:34 PM,-9.39,1.53,3.19,0.01,-0.02,0.01
7:39:34 PM,-9.40,1.58,3.14,0.00,0.00,0.01
7:39:34 PM,-9.36,1.51,3.17,0.02,-0.04,0.01
7:39:34 PM,-9.57,1.53,3.06,-0.00,-0.01,0.01
7:39:34 PM,-9.39,1.53,3.17,0.00,-0.03,0.01
7:39:34 PM,-9.48,1.57,3.11,0.03,-0.03,0.01
7:39:34 PM,-9.55,1.54,3.13,0.02,-0.04,0.01
7:39:34 PM,-9.45,1.51,3.16,0.02,-0.00,0.01
7:39:34 PM,-9.62,1.48,3.08,0.01,-0.02,0.01
7:39:35 PM,-9.45,1.42,3.30,0.01,-0.01,0.01
7:39:35 PM,-9.16,1.41,3.32,0.01,-0.03,0.01
7:39:35 PM,-9.39,1.51,3.16,0.01,0.02,0.01
7:39:35 PM,-9.50,1.42,3.14,0.03,-0.02,0.01
7:39:35 PM,-9.51,1.52,3.13,0.00,0.09,0.01
7:39:35 PM,-9.42,1.54,3.19,0.00,-0.05,0.01
7:39:35 PM,-9.37,1.60,3.21,0.02,0.01,0.01
7:39:35 PM,-9.55,1.47,3.09,0.04,-0.03,0.01
7:39:35 PM,-9.44,1.43,3.11,0.00,0.06,0.01
7:39:36 PM,-9.31,1.44,3.27,0.06,-0.08,0.01
7:39:36 PM,-9.50,1.41,3.17,-0.00,0.01,0.01
7:39:36 PM,-9.33,1.49,3.30,0.00,-0.07,0.01
7:39:36 PM,-9.34,1.48,3.30,0.02,0.01,0.01
7:39:36 PM,-9.22,1.42,3.25,0.00,0.04,0.01
7:39:36 PM,-9.33,1.53,3.26,0.02,-0.04,0.01
7:39:36 PM,-9.18,1.49,3.31,0.03,0.03,0.01
7:39:36 PM,-9.29,1.38,3.30,-0.03,0.00,0.01
7:39:36 PM,-9.46,1.54,3.24,0.01,-0.01,0.01
7:39:36 PM,-9.41,1.48,3.22,-0.02,-0.02,0.01
7:39:37 PM,-9.40,1.52,3.21,0.00,-0.01,0.01
7:39:37 PM,-9.34,1.39,3.27,0.01,-0.08,0.01
7:39:37 PM,-9.78,1.52,3.17,0.02,0.02,0.01
7:39:37 PM,-9.28,1.40,3.35,0.03,0.03,0.01
7:39:37 PM,-9.36,1.27,3.16,-0.02,0.06,0.01
7:39:37 PM,-9.37,1.45,3.21,0.03,-0.01,0.01
7:39:37 PM,-9.18,1.45,3.35,0.00,-0.02,0.01
7:39:37 PM,-9.59,1.52,3.08,0.01,-0.18,0.01
7:39:37 PM,-9.38,1.37,3.22,0.02,-0.03,0.01
7:39:38 PM,-9.28,1.32,3.27,0.01,-0.07,0.01
7:39:38 PM,-9.35,1.43,3.27,0.04,-0.06,0.01
7:39:38 PM,-9.64,1.52,3.16,-0.02,0.02,0.01
7:39:38 PM,-9.42,1.42,3.26,0.00,0.01,0.01
7:39:38 PM,-9.30,1.36,3.30,-0.01,-0.02,0.01
7:39:38 PM,-9.28,1.36,3.25,-0.02,-0.02,0.01
7:39:38 PM,-9.45,1.50,3.21,0.01,-0.09,0.01
7:39:38 PM,-9.44,1.40,3.17,0.01,0.05,0.01
7:39:38 PM,-9.33,1.46,3.22,0.01,0.06,0.01
7:39:38 PM,-9.40,1.49,3.17,-0.00,-0.09,0.01
7:39:39 PM,-9.16,1.39,3.35,0.01,-0.05,0.01
7:39:39 PM,-9.38,1.35,3.26,0.04,-0.06,0.01
7:39:39 PM,-9.33,1.43,3.33,0.01,-0.09,0.01
7:39:39 PM,-9.46,1.54,3.24,0.01,0.01,0.01
7:39:39 PM,-9.40,1.38,3.25,0.02,0.00,0.01
7:39:39 PM,-9.47,1.36,3.20,0.02,-0.01,0.01
7:39:39 PM,-9.22,1.37,3.33,-0.01,-0.02,0.01
7:39:39 PM,-9.23,1.51,3.31,-0.01,-0.01,0.01
7:39:39 PM,-9.45,1.43,3.16,0.02,0.14,0.01
7:39:40 PM,-9.27,1.53,3.25,0.02,-0.16,0.01
7:39:40 PM,-9.32,1.47,3.22,0.01,0.03,0.01
7:39:40 PM,-9.57,1.49,3.09,0.04,-0.00,0.01
7:39:40 PM,-9.35,1.53,3.19,0.00,0.04,0.01
7:39:40 PM,-9.40,1.49,3.19,0.02,0.01,0.01
7:39:40 PM,-9.27,1.48,3.25,-0.01,0.06,0.01
7:39:40 PM,-9.29,1.47,3.23,0.02,-0.07,0.01
7:39:40 PM,-9.53,1.44,3.13,0.01,0.03,0.01
7:39:40 PM,-9.42,1.50,3.15,0.02,-0.03,0.01
7:39:40 PM,-9.33,1.47,3.21,0.00,-0.02,0.01
7:39:41 PM,-9.30,1.52,3.22,0.00,-0.04,0.01
7:39:41 PM,-9.33,1.67,3.20,0.03,-0.04,0.01
7:39:41 PM,-9.33,1.60,3.22,0.04,-0.08,0.01
7:39:41 PM,-9.32,1.41,3.19,-0.00,0.05,0.01
7:39:41 PM,-9.48,1.48,3.16,0.00,-0.06,0.01
7:39:41 PM,-9.37,1.52,3.18,0.00,0.01,0.01
7:39:41 PM,-9.53,1.49,3.11,0.03,0.03,0.01
7:39:41 PM,-9.30,1.50,3.26,0.00,-0.03,0.01
7:39:41 PM,-9.44,1.48,3.18,0.05,0.00,0.01
7:39:42 PM,-9.34,1.49,3.23,-0.02,-0.01,0.01
7:39:42 PM,-9.47,1.46,3.12,0.02,-0.01,0.01
7:39:42 PM,-9.32,1.47,3.20,0.01,-0.09,0.01
7:39:42 PM,-9.33,1.51,3.25,0.01,0.03,0.01
7:39:42 PM,-9.38,1.57,3.22,0.03,-0.06,0.01
7:39:42 PM,-9.44,1.48,3.20,0.01,-0.02,0.01
7:39:42 PM,-9.39,1.50,3.22,-0.01,0.01,0.01
7:39:42 PM,-9.37,1.44,3.19,0.03,0.01,0.01
7:39:42 PM,-9.24,1.37,3.23,0.01,0.02,0.01
7:39:42 PM,-9.57,1.75,3.06,0.02,0.17,0.01
7:39:43 PM,-9.32,1.59,3.17,0.00,-0.05,0.01
7:39:43 PM,-9.50,1.57,3.08,0.03,-0.09,0.01
7:39:43 PM,-9.52,1.60,3.09,0.05,-0.04,0.01
7:39:43 PM,-9.41,1.63,3.20,0.00,-0.09,0.01
7:39:43 PM,-9.39,1.56,3.22,0.01,-0.04,0.01
7:39:43 PM,-9.38,1.52,3.22,0.01,0.02,0.01
7:39:43 PM,-9.20,1.41,3.30,0.03,0.08,0.01
7:39:43 PM,-9.68,1.68,3.09,-0.03,-0.09,0.01
7:39:43 PM,-9.22,1.58,3.31,0.00,-0.10,0.01
7:39:44 PM,-9.16,1.57,3.34,0.01,0.03,0.01
7:39:44 PM,-9.40,1.68,3.24,0.01,-0.06,0.01
7:39:44 PM,-9.31,1.58,3.34,0.03,-0.09,0.01
7:39:44 PM,-9.23,1.51,3.41,-0.01,0.09,0.01
7:39:44 PM,-9.37,1.69,3.32,-0.03,-0.18,0.01
7:39:44 PM,-9.35,1.62,3.28,-0.00,0.06,0.01
7:39:44 PM,-9.35,1.73,3.33,0.04,-0.09,0.01
7:39:44 PM,-9.21,1.57,3.34,0.04,-0.05,0.01
7:39:44 PM,-9.25,1.51,3.33,0.00,0.02,0.01
7:39:44 PM,-9.30,1.68,3.40,0.00,-0.04,0.01
7:39:45 PM,-9.45,1.54,3.29,0.04,-0.04,0.01
7:39:45 PM,-9.17,1.50,3.42,-0.05,0.07,0.01
7:39:45 PM,-9.20,1.63,3.43,0.00,-0.02,0.01
7:39:45 PM,-9.40,1.64,3.29,-0.02,-0.05,0.01
7:39:45 PM,-9.29,1.51,3.32,0.01,-0.02,0.01
7:39:45 PM,-9.36,1.55,3.31,0.00,0.05,0.01
7:39:45 PM,-9.38,1.56,3.29,-0.02,-0.10,0.01
7:39:45 PM,-9.34,1.51,3.34,-0.01,0.03,0.01
7:39:45 PM,-9.22,1.53,3.42,0.02,-0.08,0.01
7:39:46 PM,-9.27,1.57,3.44,0.01,0.00,0.01
7:39:46 PM,-9.17,1.47,3.46,0.01,-0.02,0.01
7:39:46 PM,-9.23,1.52,3.43,-0.03,0.04,0.01
7:39:46 PM,-9.20,1.50,3.40,0.04,0.08,0.01
7:39:46 PM,-9.08,1.54,3.51,0.01,0.03,0.01
7:39:46 PM,-9.19,1.56,3.47,0.01,-0.11,0.01
7:39:46 PM,-9.22,1.51,3.41,0.00,-0.07,0.01
7:39:46 PM,-8.96,1.48,3.58,-0.01,0.05,0.01
7:39:46 PM,-9.18,1.51,3.46,0.01,-0.10,0.01
7:39:47 PM,-9.10,1.61,3.45,0.01,0.04,0.01
7:39:47 PM,-9.01,1.54,3.53,0.01,-0.02,0.01
7:39:47 PM,-9.23,1.61,3.43,0.03,0.00,0.01
7:39:47 PM,-9.17,1.70,3.48,-0.02,-0.19,0.01
7:39:47 PM,-8.95,1.30,3.55,-0.02,0.14,0.01
7:39:47 PM,-9.11,1.45,3.47,-0.02,0.09,0.01
7:39:47 PM,-8.87,1.51,3.65,-0.01,-0.16,0.01
7:39:47 PM,-9.36,1.47,3.37,0.03,-0.02,0.01
7:39:47 PM,-9.26,1.43,3.40,0.03,-0.13,0.01
7:39:47 PM,-9.17,1.39,3.44,0.00,-0.02,0.01
7:39:48 PM,-9.38,1.42,3.30,0.02,-0.03,0.01
7:39:48 PM,-9.19,1.49,3.39,0.02,-0.02,0.01
7:39:48 PM,-9.18,1.49,3.50,0.01,-0.03,0.01
7:39:48 PM,-9.40,1.52,3.27,0.04,0.07,0.01
7:39:48 PM,-9.23,1.38,3.34,0.01,0.16,0.01
7:39:48 PM,-9.66,1.69,3.09,0.00,0.05,0.01
7:39:48 PM,-9.40,1.68,3.27,-0.06,-0.20,0.01
7:39:48 PM,-9.12,1.40,3.50,-0.02,0.03,0.01
7:39:48 PM,-9.21,1.35,3.40,0.03,-0.01,0.01
7:39:49 PM,-9.34,1.49,3.31,0.02,0.00,0.01
7:39:49 PM,-9.24,1.41,3.37,0.03,-0.09,0.01
7:39:49 PM,-8.91,1.60,3.62,-0.03,-0.23,0.01
7:39:49 PM,-9.27,1.73,3.42,0.08,-0.01,0.01
7:39:49 PM,-9.55,1.39,3.23,0.03,0.08,0.01
7:39:49 PM,-9.12,1.42,3.45,-0.00,-0.00,0.01
7:39:49 PM,-9.36,1.55,3.29,0.05,-0.09,0.01
7:39:49 PM,-9.47,1.34,3.21,0.02,-0.07,0.01
7:39:49 PM,-9.33,1.34,3.28,0.00,0.02,0.01
7:39:49 PM,-9.44,1.39,3.28,-0.01,-0.10,0.01
7:39:50 PM,-9.35,1.43,3.37,0.01,0.07,0.01
7:39:50 PM,-9.33,1.62,3.35,0.04,-0.09,0.01
7:39:50 PM,-9.50,1.61,3.18,-0.05,0.08,0.01
7:39:50 PM,-9.18,1.60,3.40,0.03,-0.09,0.01
7:39:50 PM,-9.31,1.60,3.29,0.02,-0.07,0.01
7:39:50 PM,-9.45,1.46,3.17,0.05,-0.01,0.01
7:39:50 PM,-9.40,1.44,3.27,0.01,0.04,0.01
7:39:50 PM,-9.30,1.42,3.28,0.00,-0.06,0.01
7:39:50 PM,-9.12,1.55,3.47,0.02,-0.03,0.01
7:39:51 PM,-9.33,1.44,3.28,0.01,-0.06,0.01
7:39:51 PM,-9.29,1.51,3.37,-0.00,0.04,0.01
7:39:51 PM,-9.33,1.34,3.27,0.02,-0.06,0.01
7:39:51 PM,-9.39,1.52,3.30,0.04,0.02,0.01
7:39:51 PM,-9.61,1.31,3.06,0.02,0.09,0.01
7:39:51 PM,-9.76,1.47,2.97,0.12,-0.03,0.01
7:39:51 PM,-9.53,1.42,3.13,0.09,-0.07,0.01
7:39:51 PM,-9.43,1.34,3.21,0.01,0.02,0.01
7:39:51 PM,-10.18,1.81,2.98,0.22,-0.03,0.01
7:39:51 PM,-9.13,1.29,3.45,-0.04,0.10,0.01
7:39:52 PM,-9.32,1.43,3.25,-0.00,0.01,0.01
7:39:52 PM,-8.98,1.33,3.43,0.03,-0.06,0.01
7:39:52 PM,-9.27,1.31,3.25,-0.00,0.00,0.01
7:39:52 PM,-9.51,1.47,3.13,-0.01,0.10,0.01
7:39:52 PM,-9.33,1.43,3.27,0.03,-0.07,0.01
7:39:52 PM,-9.45,1.34,3.21,0.02,0.00,0.01
7:39:52 PM,-9.45,1.47,3.17,-0.00,0.02,0.01
7:39:52 PM,-9.34,1.38,3.21,0.03,-0.07,0.01
7:39:52 PM,-9.63,1.41,3.06,-0.01,0.10,0.01
7:39:53 PM,-9.31,1.40,3.24,0.02,-0.06,0.01
7:39:53 PM,-9.45,1.48,3.15,-0.02,0.01,0.01
7:39:53 PM,-9.36,1.44,3.14,0.02,0.06,0.01
7:39:53 PM,-9.80,1.53,2.92,0.03,0.03,0.01
7:39:53 PM,-9.42,1.52,3.09,0.00,-0.05,0.01
7:39:53 PM,-9.25,1.38,3.19,-0.00,0.03,0.01
7:39:53 PM,-9.52,1.64,3.08,0.02,-0.03,0.01
7:39:53 PM,-9.36,1.51,3.13,0.03,0.00,0.01
7:39:53 PM,-9.96,1.46,2.83,-0.06,-0.01,0.01
7:39:53 PM,-9.31,1.56,3.13,0.00,-0.04,0.01
7:39:54 PM,-9.22,1.53,3.25,-0.00,-0.00,0.01
7:39:54 PM,-9.47,1.69,3.16,-0.04,0.02,0.01
7:39:54 PM,-9.31,1.54,3.21,0.02,0.01,0.01
7:39:54 PM,-9.45,1.59,3.09,-0.02,-0.02,0.01
7:39:54 PM,-9.18,1.49,3.29,0.02,-0.01,0.01
7:39:54 PM,-9.17,1.43,3.19,-0.00,0.04,0.01
7:39:54 PM,-9.24,1.49,3.20,0.00,0.05,0.01
7:39:54 PM,-9.64,1.56,2.96,0.03,-0.06,0.01
7:39:54 PM,-9.33,1.47,3.18,-0.02,-0.10,0.01
7:39:55 PM,-9.28,1.47,3.26,0.01,-0.08,0.01
7:39:55 PM,-9.17,1.55,3.33,0.02,0.06,0.01
7:39:55 PM,-9.35,1.46,3.22,0.01,0.04,0.01
7:39:55 PM,-9.32,1.47,3.20,-0.02,0.11,0.01
7:39:55 PM,-9.44,1.57,3.09,0.04,-0.01,0.01
7:39:55 PM,-9.36,1.53,3.13,-0.02,0.03,0.01
7:39:55 PM,-9.48,1.56,3.07,0.02,-0.03,0.01
7:39:55 PM,-9.41,1.42,3.09,0.07,-0.23,0.01
7:39:55 PM,-9.29,1.52,3.30,0.03,0.05,0.01
7:39:55 PM,-9.32,1.40,3.15,0.01,0.09,0.01
7:39:56 PM,-9.49,1.44,3.07,-0.01,0.01,0.01
7:39:56 PM,-9.34,1.54,3.15,0.03,0.08,0.01
7:39:56 PM,-9.36,1.61,3.13,0.02,-0.03,0.01
7:39:56 PM,-9.52,1.60,3.05,0.05,-0.03,0.01
7:39:56 PM,-9.33,1.60,3.14,-0.03,-0.03,0.01
7:39:56 PM,-9.56,1.64,3.03,0.06,-0.02,0.01
7:39:56 PM,-9.21,1.43,3.15,-0.02,0.02,0.01
7:39:56 PM,-9.48,1.53,3.02,0.02,-0.03,0.01
7:39:56 PM,-9.24,1.30,3.22,0.03,-0.04,0.01
7:39:57 PM,-9.56,1.59,3.03,-0.02,0.10,0.01
7:39:57 PM,-9.41,1.51,3.17,0.01,-0.07,0.01
7:39:57 PM,-9.53,1.65,3.06,0.00,-0.07,0.01
7:39:57 PM,-9.46,1.52,3.15,0.02,-0.04,0.01
7:39:57 PM,-9.49,1.48,3.09,0.00,-0.03,0.01
7:39:57 PM,-9.19,1.52,3.31,0.00,0.02,0.01
7:39:57 PM,-9.32,1.47,3.18,0.05,-0.08,0.01
7:39:57 PM,-9.34,1.47,3.18,0.01,-0.08,0.01
7:39:57 PM,-9.20,1.53,3.24,0.00,0.01,0.01
7:39:57 PM,-9.37,1.57,3.18,0.04,-0.05,0.01
7:39:58 PM,-9.11,1.46,3.33,-0.05,0.08,0.01
7:39:58 PM,-9.53,1.58,3.04,0.02,0.03,0.01
7:39:58 PM,-9.47,1.56,3.15,0.03,-0.03,0.01
7:39:58 PM,-9.49,1.47,3.10,0.02,-0.01,0.01
7:39:58 PM,-9.46,1.49,3.12,-0.01,0.03,0.01
7:39:58 PM,-9.47,1.52,3.12,0.02,-0.04,0.01
7:39:58 PM,-9.29,1.52,3.18,-0.01,-0.02,0.01
7:39:58 PM,-9.35,1.58,3.18,0.01,0.04,0.01
7:39:58 PM,-9.36,1.61,3.13,0.00,0.02,0.01
7:39:59 PM,-9.24,1.54,3.20,0.01,0.04,0.01
7:39:59 PM,-9.51,1.64,3.05,0.00,-0.01,0.01
7:39:59 PM,-9.32,1.64,3.14,0.03,-0.03,0.01
7:39:59 PM,-9.41,1.60,3.09,0.01,0.03,0.01
7:39:59 PM,-9.31,1.62,3.15,0.02,0.02,0.01
7:39:59 PM,-9.46,1.57,3.05,0.03,0.02,0.01
7:39:59 PM,-9.32,1.57,3.26,0.03,-0.11,0.01
7:39:59 PM,-9.53,1.63,3.15,0.02,0.05,0.01
7:39:59 PM,-9.30,1.54,3.24,0.01,0.01,0.01
7:40:00 PM,-9.32,1.45,3.11,-0.02,-0.02,0.01
7:40:00 PM,-9.22,1.51,3.27,0.03,-0.01,0.01
7:40:00 PM,-9.42,1.55,3.18,0.01,0.07,0.01
7:40:00 PM,-9.19,1.53,3.25,0.00,0.05,0.01
7:40:00 PM,-9.40,1.57,3.17,0.01,-0.02,0.01
7:40:00 PM,-9.43,1.68,3.13,0.02,0.01,0.01
7:40:00 PM,-9.25,1.54,3.23,-0.00,-0.04,0.01
7:40:00 PM,-9.59,1.55,3.09,-0.00,-0.03,0.01
7:40:00 PM,-9.33,1.62,3.19,-0.01,0.01,0.01
7:40:00 PM,-9.49,1.63,3.13,-0.01,-0.06,0.01
7:40:01 PM,-9.41,1.59,3.19,0.01,0.02,0.01
7:40:01 PM,-9.58,1.65,3.04,0.03,-0.01,0.01
7:40:01 PM,-9.14,1.50,3.26,-0.03,-0.03,0.01
7:40:01 PM,-9.41,1.61,3.18,0.01,-0.07,0.01
7:40:01 PM,-9.33,1.56,3.22,0.02,-0.04,0.01
7:40:01 PM,-9.32,1.49,3.21,-0.00,-0.05,0.01
7:40:01 PM,-9.26,1.68,3.25,-0.01,0.02,0.01
7:40:01 PM,-9.36,1.62,3.14,-0.00,0.06,0.01
7:40:01 PM,-9.44,1.67,3.13,0.01,0.05,0.01
7:40:02 PM,-9.39,1.68,3.26,0.02,-0.12,0.01
7:40:02 PM,-9.10,1.51,3.37,-0.01,0.02,0.01
7:40:02 PM,-9.42,1.59,3.21,0.00,-0.01,0.01
7:40:02 PM,-9.25,1.54,3.35,0.01,0.03,0.01
7:40:02 PM,-9.33,1.47,3.27,-0.00,-0.03,0.01
7:40:02 PM,-9.42,1.55,3.17,0.00,-0.00,0.01
7:40:02 PM,-9.49,1.58,3.13,0.00,-0.00,0.01
7:40:02 PM,-9.34,1.56,3.27,-0.01,-0.01,0.01
7:40:02 PM,-9.33,1.53,3.22,0.02,0.05,0.01
7:40:02 PM,-9.55,1.59,3.14,0.01,0.05,0.01
7:40:03 PM,-9.40,1.62,3.23,-0.01,-0.00,0.01
7:40:03 PM,-9.42,1.57,3.17,0.02,-0.10,0.01
7:40:03 PM,-9.23,1.64,3.29,0.00,-0.06,0.01
7:40:03 PM,-9.34,1.56,3.25,0.01,-0.05,0.01
7:40:03 PM,-9.33,1.56,3.20,0.01,0.07,0.01
7:40:03 PM,-9.28,1.72,3.27,-0.01,-0.05,0.01
7:40:03 PM,-9.31,1.48,3.25,0.01,0.02,0.01
7:40:03 PM,-9.32,1.63,3.31,-0.02,0.03,0.01
7:40:03 PM,-9.41,1.58,3.22,0.00,-0.03,0.01
7:40:04 PM,-9.35,1.35,3.26,0.05,0.03,0.01
7:40:04 PM,-9.33,1.50,3.17,-0.03,0.01,0.01
7:40:04 PM,-9.23,1.74,3.21,-0.02,0.04,0.01
7:40:04 PM,-9.32,1.64,3.12,0.02,-0.04,0.01
7:40:04 PM,-9.38,1.69,3.15,0.01,0.03,0.01
7:40:04 PM,-9.58,1.65,3.00,0.02,-0.01,0.01
7:40:04 PM,-9.42,1.63,3.13,0.00,-0.00,0.01
7:40:04 PM,-9.28,1.56,3.20,-0.04,0.07,0.01
7:40:04 PM,-9.16,1.65,3.31,0.01,-0.06,0.01
7:40:04 PM,-8.44,2.05,3.67,-0.14,-0.36,0.01
7:40:05 PM,-9.56,1.72,3.07,0.06,-0.08,0.01
7:40:05 PM,-9.22,1.68,3.29,0.01,0.00,0.01
7:40:05 PM,-9.48,1.77,3.18,0.10,-0.19,0.01
7:40:05 PM,-9.37,1.70,3.28,-0.04,0.00,0.01
7:40:05 PM,-9.52,1.74,3.13,0.05,-0.01,0.01
7:40:05 PM,-9.40,1.70,3.18,0.02,0.02,0.01
7:40:05 PM,-9.55,1.86,3.14,-0.03,-0.06,0.01
7:40:05 PM,-9.07,1.80,3.34,-0.00,0.01,0.01
7:40:05 PM,-9.50,1.71,3.09,0.03,-0.14,0.01
7:40:06 PM,-9.36,1.64,3.21,-0.01,0.00,0.01
7:40:06 PM,-9.55,1.72,3.06,-0.03,0.00,0.01
7:40:06 PM,-9.13,1.73,3.33,0.01,-0.10,0.01
7:40:06 PM,-9.42,1.75,3.12,0.03,-0.06,0.01
7:40:06 PM,-9.22,1.75,3.27,-0.01,0.01,0.01
7:40:06 PM,-9.27,1.69,3.33,0.09,-0.27,0.01
7:40:06 PM,-9.31,1.38,3.33,0.01,0.24,0.01
7:40:06 PM,-9.29,1.62,3.32,-0.02,-0.06,0.01
7:40:06 PM,-9.04,1.53,3.43,0.03,-0.07,0.01
7:40:06 PM,-9.30,1.56,3.22,0.03,0.04,0.01
7:40:07 PM,-9.32,1.56,3.21,0.01,0.11,0.01
7:40:07 PM,-9.24,1.78,3.28,0.06,-0.11,0.01
7:40:07 PM,-9.74,1.93,2.98,0.02,0.16,0.01
7:40:07 PM,-9.11,1.59,3.37,0.02,-0.10,0.01
7:40:07 PM,-9.31,1.71,3.21,-0.02,0.09,0.01
7:40:07 PM,-9.14,1.64,3.34,-0.01,-0.03,0.01
7:40:07 PM,-9.34,1.73,3.21,-0.01,0.08,0.01
7:40:07 PM,-9.23,1.71,3.28,0.04,-0.08,0.01
7:40:07 PM,-9.42,1.68,3.16,0.03,-0.08,0.01
7:40:08 PM,-9.35,1.66,3.22,0.01,0.02,0.01
7:40:08 PM,-9.68,1.69,2.99,-0.01,0.12,0.01
7:40:08 PM,-9.08,1.79,3.40,0.01,-0.18,0.01
7:40:08 PM,-9.50,1.67,3.08,0.02,0.03,0.01
7:40:08 PM,-9.37,1.60,3.18,-0.00,-0.01,0.01
7:40:08 PM,-9.13,1.70,3.29,0.01,-0.00,0.01
7:40:08 PM,-9.14,1.61,3.27,-0.00,-0.10,0.01
7:40:08 PM,-9.46,1.67,3.11,0.05,-0.01,0.01
7:40:08 PM,-9.36,1.52,3.20,0.02,-0.01,0.01
7:40:08 PM,-9.16,1.65,3.36,0.05,0.01,0.01
7:40:09 PM,-9.41,1.76,3.18,0.04,0.01,0.01
7:40:09 PM,-9.41,1.62,3.13,0.02,-0.04,0.01
7:40:09 PM,-9.48,1.76,3.10,-0.04,0.08,0.01
7:40:09 PM,-9.64,1.81,3.06,0.05,-0.02,0.01
7:40:09 PM,-9.29,1.71,3.26,0.02,-0.08,0.01
7:40:09 PM,-9.25,1.65,3.35,-0.00,-0.02,0.01
7:40:09 PM,-9.21,1.69,3.36,0.00,-0.01,0.01
7:40:09 PM,-9.33,1.69,3.30,0.02,-0.05,0.01
7:40:09 PM,-9.11,1.63,3.45,0.02,-0.05,0.01
7:40:10 PM,-9.43,1.73,3.22,-0.02,0.18,0.01
7:40:10 PM,-9.12,1.57,3.33,-0.00,-0.13,0.01
7:40:10 PM,-9.27,1.74,3.32,-0.03,-0.01,0.01
7:40:10 PM,-9.25,1.64,3.36,0.03,-0.06,0.01
7:40:10 PM,-9.30,1.88,3.30,-0.08,0.11,0.01
7:40:10 PM,-9.61,1.75,3.03,0.03,-0.00,0.01
7:40:10 PM,-8.94,1.81,3.54,-0.01,-0.18,0.01
7:40:10 PM,-9.31,1.73,3.36,0.02,0.02,0.01
7:40:10 PM,-9.12,1.52,3.45,-0.04,0.05,0.01
7:40:11 PM,-9.51,1.66,3.22,-0.00,0.03,0.01
7:40:11 PM,-9.20,1.74,3.44,0.02,0.05,0.01
7:40:11 PM,-9.27,1.55,3.32,-0.01,0.07,0.01
7:40:11 PM,-9.27,1.66,3.36,0.02,-0.03,0.01
7:40:11 PM,-9.39,1.78,3.26,0.03,0.14,0.01
7:40:11 PM,-9.42,1.65,3.20,0.03,-0.03,0.01
7:40:11 PM,-9.17,1.65,3.29,-0.03,0.03,0.01
7:40:11 PM,-9.16,1.73,3.37,0.00,-0.05,0.01
7:40:11 PM,-9.44,1.80,3.22,-0.03,-0.00,0.01
7:40:11 PM,-9.30,1.85,3.26,-0.02,0.04,0.01
7:40:12 PM,-9.34,1.88,3.29,0.06,-0.11,0.01
7:40:12 PM,-9.30,1.76,3.27,0.03,0.02,0.01
7:40:12 PM,-9.33,1.75,3.27,0.03,-0.00,0.01
7:40:12 PM,-9.42,1.65,3.14,0.02,-0.05,0.01
7:40:12 PM,-9.29,1.68,3.27,0.04,-0.10,0.01
7:40:12 PM,-9.12,1.66,3.38,-0.01,-0.02,0.01
7:40:12 PM,-9.42,1.79,3.22,0.05,-0.11,0.01
7:40:12 PM,-9.26,1.76,3.37,0.01,-0.03,0.01
7:40:12 PM,-9.39,1.76,3.26,0.01,-0.13,0.01
7:40:13 PM,-9.11,1.71,3.45,-0.00,0.04,0.01
7:40:13 PM,-9.26,1.63,3.34,0.02,-0.10,0.01
7:40:13 PM,-9.08,1.61,3.46,-0.03,0.12,0.01
7:40:13 PM,-9.33,1.67,3.18,0.03,-0.08,0.01
7:40:13 PM,-9.27,1.60,3.30,-0.04,0.15,0.01
7:40:13 PM,-9.41,1.84,3.13,0.07,-0.07,0.01
7:40:13 PM,-9.13,1.64,3.41,-0.01,0.05,0.01
7:40:13 PM,-9.46,1.66,3.23,0.01,0.05,0.01
7:40:13 PM,-9.28,1.47,3.33,0.00,-0.03,0.01
7:40:13 PM,-9.32,1.66,3.33,0.03,0.05,0.01
7:40:14 PM,-9.26,1.59,3.32,-0.02,0.01,0.01
7:40:14 PM,-9.31,1.68,3.31,-0.00,0.03,0.01
7:40:14 PM,-9.33,1.73,3.32,-0.00,-0.06,0.01
7:40:14 PM,-9.29,1.70,3.34,-0.01,-0.03,0.01
7:40:14 PM,-9.05,1.59,3.47,0.00,-0.03,0.01
7:40:14 PM,-9.19,1.73,3.34,-0.02,0.05,0.01
7:40:14 PM,-9.26,1.74,3.28,0.02,-0.11,0.01
7:40:14 PM,-9.25,1.64,3.36,0.01,-0.02,0.01
7:40:14 PM,-9.42,1.83,3.26,0.00,0.03,0.01
7:40:15 PM,-9.32,1.75,3.27,0.01,-0.02,0.01
7:40:15 PM,-9.17,1.83,3.41,0.02,-0.02,0.01
7:40:15 PM,-9.39,1.81,3.27,-0.00,-0.01,0.01
7:40:15 PM,-9.11,1.74,3.46,-0.02,-0.00,0.01
7:40:15 PM,-9.23,1.81,3.33,0.01,0.03,0.01
7:40:15 PM,-9.58,1.92,3.17,0.02,-0.19,0.01
7:40:15 PM,-9.14,1.58,3.39,-0.03,0.01,0.01
7:40:15 PM,-9.24,1.71,3.39,0.01,-0.00,0.01
7:40:15 PM,-9.05,1.68,3.51,-0.01,0.11,0.01
7:40:15 PM,-9.48,2.03,3.18,0.05,-0.06,0.01
7:40:16 PM,-9.22,1.79,3.35,0.01,0.01,0.01
7:40:16 PM,-9.53,1.82,3.18,0.05,-0.05,0.01
7:40:16 PM,-9.21,1.91,3.34,-0.01,-0.01,0.01
7:40:16 PM,-9.32,1.89,3.29,0.05,0.04,0.01
7:40:16 PM,-9.31,1.87,3.31,0.01,-0.07,0.01
7:40:16 PM,-9.22,1.87,3.34,-0.01,0.05,0.01
7:40:16 PM,-9.17,1.98,3.41,-0.00,-0.04,0.01
7:40:16 PM,-9.09,1.85,3.47,0.03,-0.10,0.01
7:40:16 PM,-9.03,1.73,3.46,0.01,-0.09,0.01
7:40:17 PM,-9.16,1.77,3.36,0.00,0.02,0.01
7:40:17 PM,-9.37,1.84,3.38,-0.03,0.02,0.01
7:40:17 PM,-9.24,1.78,3.38,0.02,-0.05,0.01
7:40:17 PM,-9.22,1.75,3.42,-0.02,0.09,0.01
7:40:17 PM,-9.25,1.92,3.40,0.03,-0.08,0.01
7:40:17 PM,-9.10,1.70,3.51,0.01,-0.12,0.01
7:40:17 PM,-9.00,1.75,3.56,-0.02,0.02,0.01
7:40:17 PM,-9.36,1.98,3.29,0.05,-0.08,0.01
7:40:17 PM,-9.35,1.75,3.33,0.03,0.02,0.01
7:40:17 PM,-9.27,1.89,3.37,0.01,-0.04,0.01
7:40:18 PM,-9.15,1.72,3.43,0.01,0.00,0.01
7:40:18 PM,-9.36,1.75,3.31,-0.01,-0.02,0.01
7:40:18 PM,-9.13,1.81,3.41,-0.01,0.10,0.01
7:40:18 PM,-9.20,1.78,3.34,0.02,0.04,0.01
7:40:18 PM,-9.24,1.93,3.29,0.00,0.05,0.01
7:40:18 PM,-9.23,1.94,3.30,0.03,0.02,0.01
7:40:18 PM,-9.29,1.95,3.25,0.07,0.07,0.01
7:40:18 PM,-9.34,1.92,3.20,0.01,-0.02,0.01
7:40:18 PM,-9.22,1.78,3.23,0.03,0.00,0.01
7:40:19 PM,-9.28,2.00,3.28,0.02,0.01,0.01
7:40:19 PM,-9.15,1.87,3.35,0.02,0.01,0.01
7:40:19 PM,-9.41,1.88,3.24,0.02,0.02,0.01
7:40:19 PM,-9.33,1.91,3.21,0.00,-0.01,0.01
7:40:19 PM,-9.18,1.76,3.41,0.02,-0.00,0.01
7:40:19 PM,-9.38,1.94,3.18,0.03,-0.03,0.01
7:40:19 PM,-9.33,1.91,3.23,-0.01,-0.01,0.01
7:40:19 PM,-9.25,1.84,3.31,0.00,-0.07,0.01
7:40:19 PM,-9.27,1.88,3.25,0.01,-0.01,0.01
7:40:19 PM,-9.25,1.86,3.27,-0.04,-0.03,0.01
7:40:20 PM,-8.96,1.77,3.46,0.01,-0.01,0.01
7:40:20 PM,-9.16,1.87,3.34,0.03,-0.08,0.01
7:40:20 PM,-9.14,1.74,3.38,-0.02,-0.00,0.01
7:40:20 PM,-9.27,1.94,3.30,0.02,0.08,0.01
7:40:20 PM,-9.00,1.80,3.41,0.02,-0.11,0.01
7:40:20 PM,-9.50,1.77,3.11,-0.02,0.01,0.01
7:40:20 PM,-9.50,1.88,3.16,0.04,-0.07,0.01
7:40:20 PM,-9.13,1.73,3.43,0.01,-0.05,0.01
7:40:20 PM,-9.36,1.81,3.25,0.03,-0.06,0.01
7:40:21 PM,-9.11,1.73,3.40,0.00,-0.00,0.01
7:40:21 PM,-9.17,1.87,3.40,-0.02,-0.00,0.01
7:40:21 PM,-9.14,1.69,3.36,-0.02,-0.04,0.01
7:40:21 PM,-9.27,1.84,3.34,0.05,-0.09,0.01
7:40:21 PM,-9.26,1.72,3.31,0.01,0.09,0.01
7:40:21 PM,-9.34,1.92,3.25,0.01,-0.13,0.01
7:40:21 PM,-9.38,1.79,3.30,0.02,-0.10,0.01
7:40:21 PM,-9.22,1.88,3.34,-0.03,-0.04,0.01
7:40:21 PM,-9.15,1.78,3.42,0.01,-0.05,0.01
7:40:21 PM,-9.37,1.82,3.25,0.01,0.01,0.01
7:40:22 PM,-9.18,1.76,3.33,-0.00,-0.03,0.01
7:40:22 PM,-9.12,1.78,3.40,0.04,-0.10,0.01
7:40:22 PM,-9.09,1.79,3.42,0.04,0.03,0.01
7:40:22 PM,-9.40,1.76,3.23,0.01,0.02,0.01
7:40:22 PM,-9.28,1.73,3.36,-0.03,-0.00,0.01
7:40:22 PM,-9.22,1.87,3.35,0.01,-0.06,0.01
7:40:22 PM,-9.13,1.81,3.41,0.04,-0.07,0.01
7:40:22 PM,-9.16,1.89,3.38,0.00,0.04,0.01
7:40:22 PM,-9.20,1.80,3.45,0.03,-0.06,0.01
7:40:23 PM,-9.16,1.79,3.42,-0.00,-0.02,0.01
7:40:23 PM,-9.32,1.79,3.33,0.00,0.03,0.01
7:40:23 PM,-9.29,1.78,3.34,0.03,-0.04,0.01
7:40:23 PM,-9.18,1.79,3.38,-0.02,0.08,0.01
7:40:23 PM,-9.28,1.83,3.27,0.05,0.01,0.01
7:40:23 PM,-9.20,1.87,3.34,0.01,0.09,0.01
7:40:23 PM,-9.13,1.82,3.36,0.03,-0.03,0.01
7:40:23 PM,-9.20,1.86,3.36,0.01,-0.04,0.01
7:40:23 PM,-9.19,1.82,3.36,0.03,0.01,0.01
7:40:24 PM,-9.25,1.98,3.37,-0.01,-0.00,0.01
7:40:24 PM,-9.25,2.01,3.32,0.00,-0.01,0.01
7:40:24 PM,-9.22,1.98,3.36,0.03,-0.01,0.01
7:40:24 PM,-9.20,1.88,3.38,0.04,-0.02,0.01
7:40:24 PM,-9.20,1.82,3.27,0.01,0.05,0.01
7:40:24 PM,-9.19,1.90,3.32,0.01,-0.05,0.01
7:40:24 PM,-9.27,2.00,3.23,0.01,0.02,0.01
7:40:24 PM,-9.26,1.99,3.24,0.01,-0.02,0.01
7:40:24 PM,-9.33,2.02,3.25,0.02,-0.05,0.01
7:40:24 PM,-9.32,1.95,3.16,0.01,0.02,0.01
7:40:25 PM,-9.22,2.02,3.26,0.03,-0.01,0.01
7:40:25 PM,-9.34,2.01,3.17,0.03,-0.01,0.01
7:40:25 PM,-9.41,2.13,3.11,-0.01,0.04,0.01
7:40:25 PM,-9.21,2.00,3.27,0.03,-0.04,0.01
7:40:25 PM,-9.24,1.94,3.22,-0.01,0.05,0.01
7:40:25 PM,-9.25,2.01,3.27,0.02,0.03,0.01
7:40:25 PM,-9.31,2.04,3.20,0.05,-0.08,0.01
7:40:25 PM,-9.16,1.96,3.27,-0.01,-0.00,0.01
7:40:25 PM,-9.15,1.94,3.33,-0.00,0.03,0.01
7:40:26 PM,-9.34,2.04,3.17,-0.01,0.01,0.01
7:40:26 PM,-9.29,2.04,3.23,0.04,-0.04,0.01
7:40:26 PM,-8.83,2.10,3.45,0.05,0.18,0.01
7:40:26 PM,-9.19,2.03,3.25,0.02,0.03,0.01
7:40:26 PM,-9.41,2.12,3.31,-0.03,-0.21,0.01
7:40:26 PM,-9.41,2.26,3.16,0.00,-0.03,0.01
7:40:26 PM,-9.16,2.22,3.28,-0.00,0.02,0.01
7:40:26 PM,-9.11,2.12,3.35,0.04,-0.01,0.01
7:40:26 PM,-9.28,2.19,3.28,0.05,0.03,0.01
7:40:26 PM,-9.07,2.35,3.39,-0.04,-0.18,0.01
7:40:27 PM,-9.05,2.09,3.43,0.03,-0.01,0.01
7:40:27 PM,-8.94,2.16,3.45,-0.01,0.01,0.01
7:40:27 PM,-9.07,2.22,3.42,0.02,0.03,0.01
7:40:27 PM,-9.24,2.35,3.33,0.01,-0.02,0.01
7:40:27 PM,-9.08,2.22,3.39,0.02,0.01,0.01
7:40:27 PM,-9.19,2.29,3.32,0.01,0.04,0.01
7:40:27 PM,-9.24,2.22,3.29,0.03,-0.01,0.01
7:40:27 PM,-9.25,2.24,3.29,0.01,0.07,0.01
7:40:27 PM,-9.32,2.19,3.21,0.03,-0.03,0.01
7:40:28 PM,-9.24,2.07,3.29,0.03,0.03,0.01
7:40:28 PM,-9.17,2.09,3.37,0.01,-0.09,0.01
7:40:28 PM,-9.19,2.13,3.34,-0.03,0.01,0.01
7:40:28 PM,-9.11,2.11,3.39,-0.01,-0.06,0.01
7:40:28 PM,-9.06,2.13,3.45,0.04,-0.06,0.01
7:40:28 PM,-9.13,2.10,3.40,0.02,-0.03,0.01
7:40:28 PM,-9.15,2.08,3.40,0.01,-0.04,0.01
7:40:28 PM,-9.32,2.07,3.29,-0.01,0.02,0.01
7:40:28 PM,-9.06,1.96,3.44,0.01,-0.04,0.01
7:40:28 PM,-9.05,2.16,3.48,-0.03,0.03,0.01
7:40:29 PM,-9.13,2.17,3.41,0.01,-0.09,0.01
7:40:29 PM,-9.05,2.10,3.45,0.00,-0.03,0.01
7:40:29 PM,-9.17,2.21,3.37,-0.00,0.01,0.01
7:40:29 PM,-9.13,2.16,3.43,0.02,-0.09,0.01
7:40:29 PM,-9.14,2.19,3.43,0.01,0.05,0.01
7:40:29 PM,-9.44,2.10,3.20,-0.01,0.13,0.01
7:40:29 PM,-9.14,2.11,3.37,0.01,0.08,0.01
7:40:29 PM,-9.21,2.13,3.38,0.02,-0.03,0.01
7:40:29 PM,-9.10,2.14,3.39,-0.03,0.05,0.01
7:40:30 PM,-9.05,2.16,3.41,0.03,0.11,0.01
7:40:30 PM,-9.31,2.17,3.28,0.02,0.01,0.01
7:40:30 PM,-9.22,2.10,3.28,0.02,-0.01,0.01
7:40:30 PM,-9.19,2.18,3.28,0.02,0.02,0.01
7:40:30 PM,-9.56,2.15,3.13,0.02,-0.04,0.01
7:40:30 PM,-9.28,2.25,3.22,-0.00,-0.04,0.01
7:40:30 PM,-9.05,2.13,3.42,0.02,-0.08,0.01
7:40:30 PM,-9.11,2.17,3.44,0.01,0.04,0.01
7:40:30 PM,-8.98,2.24,3.44,0.00,-0.02,0.01
7:40:30 PM,-9.21,2.22,3.25,0.03,0.04,0.01
7:40:31 PM,-9.07,2.15,3.40,0.01,-0.01,0.01
7:40:31 PM,-9.21,2.26,3.28,-0.01,-0.00,0.01
7:40:31 PM,-9.16,2.20,3.30,0.02,-0.02,0.01
7:40:31 PM,-9.29,2.19,3.20,0.02,0.08,0.01
7:40:31 PM,-9.03,2.12,3.44,0.03,0.04,0.01
7:40:31 PM,-9.29,2.27,3.22,0.02,0.02,0.01
7:40:31 PM,-9.17,2.14,3.24,0.07,-0.05,0.01
7:40:31 PM,-9.56,2.35,3.05,0.08,0.11,0.01
7:40:31 PM,-9.38,2.31,3.25,-0.01,-0.13,0.01
7:40:32 PM,-9.24,2.18,3.23,-0.01,0.00,0.01
7:40:32 PM,-9.24,2.15,3.25,-0.02,-0.00,0.01
7:40:32 PM,-9.09,2.22,3.35,0.01,-0.03,0.01
7:40:32 PM,-9.09,2.21,3.36,0.02,0.00,0.01
7:40:32 PM,-9.30,2.12,3.21,-0.00,-0.02,0.01
7:40:32 PM,-9.41,2.17,3.24,0.03,-0.07,0.01
7:40:32 PM,-9.13,2.17,3.33,0.01,-0.02,0.01
7:40:32 PM,-9.37,2.24,3.21,-0.00,-0.01,0.01
7:40:32 PM,-9.03,2.10,3.37,-0.00,0.00,0.01
7:40:32 PM,-9.24,2.13,3.33,0.00,-0.02,0.01
7:40:33 PM,-9.23,2.21,3.29,0.00,-0.03,0.01
7:40:33 PM,-9.23,2.15,3.30,0.02,-0.02,0.01
7:40:33 PM,-9.19,2.28,3.35,-0.01,0.02,0.01
7:40:33 PM,-9.36,2.27,3.22,0.01,-0.04,0.01
7:40:33 PM,-9.20,2.22,3.32,0.01,0.01,0.01
7:40:33 PM,-9.26,2.25,3.29,0.03,0.01,0.01
7:40:33 PM,-9.14,2.20,3.37,-0.00,-0.02,0.01
7:40:33 PM,-9.26,2.22,3.34,0.00,0.01,0.01
7:40:33 PM,-9.11,2.19,3.38,-0.01,0.02,0.01
7:40:34 PM,-8.96,2.15,3.45,0.02,-0.01,0.01
7:40:34 PM,-9.21,2.18,3.34,-0.00,-0.04,0.01
7:40:34 PM,-9.29,2.31,3.28,-0.00,0.07,0.01
7:40:34 PM,-9.13,2.29,3.38,-0.01,-0.07,0.01
7:40:34 PM,-9.14,2.24,3.39,0.00,-0.02,0.01
7:40:34 PM,-9.11,2.25,3.38,0.03,-0.05,0.01
7:40:34 PM,-9.19,2.23,3.37,0.03,-0.08,0.01
7:40:34 PM,-9.28,2.22,3.28,0.00,0.06,0.01
7:40:34 PM,-9.17,2.22,3.33,0.00,-0.02,0.01
7:40:35 PM,-9.25,2.20,3.34,0.01,-0.02,0.01
7:40:35 PM,-9.34,2.23,3.28,-0.01,-0.10,0.01
7:40:35 PM,-9.18,2.22,3.38,0.02,-0.08,0.01
7:40:35 PM,-9.14,2.29,3.38,0.01,0.02,0.01
7:40:35 PM,-9.02,2.21,3.41,-0.00,0.06,0.01
7:40:35 PM,-8.97,2.16,3.49,0.02,-0.06,0.01
7:40:35 PM,-9.14,2.23,3.40,0.02,-0.04,0.01
7:40:35 PM,-9.06,2.13,3.41,-0.01,0.00,0.01
7:40:35 PM,-9.06,2.24,3.44,-0.01,0.03,0.01
7:40:35 PM,-9.02,2.21,3.41,0.00,-0.00,0.01
7:40:36 PM,-9.04,2.18,3.42,0.02,-0.03,0.01
7:40:36 PM,-9.10,2.23,3.38,-0.00,-0.03,0.01
7:40:36 PM,-9.00,2.08,3.46,0.00,0.03,0.01
7:40:36 PM,-9.11,2.17,3.38,-0.02,0.03,0.01
7:40:36 PM,-9.11,2.20,3.36,-0.00,0.09,0.01
7:40:36 PM,-9.24,2.17,3.34,0.11,-0.09,0.01
7:40:36 PM,-9.19,2.08,3.42,0.03,-0.10,0.01
7:40:36 PM,-8.97,1.98,3.56,-0.01,-0.02,0.01
7:40:36 PM,-9.09,2.27,3.40,0.01,-0.06,0.01
7:40:37 PM,-9.21,2.03,3.28,-0.01,-0.00,0.01
7:40:37 PM,-9.22,2.04,3.33,0.00,0.04,0.01
7:40:37 PM,-9.03,2.16,3.43,-0.03,-0.07,0.01
7:40:37 PM,-9.05,2.08,3.45,0.01,-0.14,0.01
7:40:37 PM,-8.92,2.12,3.48,0.01,0.01,0.01
7:40:37 PM,-9.02,2.14,3.52,0.01,-0.08,0.01
7:40:37 PM,-8.98,2.16,3.56,0.04,-0.06,0.01
7:40:37 PM,-9.22,2.32,3.38,0.00,0.04,0.01
7:40:37 PM,-9.00,2.34,3.50,-0.02,-0.05,0.01
7:40:37 PM,-9.15,2.22,3.44,-0.00,-0.03,0.01
7:40:38 PM,-9.32,2.30,3.33,-0.01,0.04,0.01
7:40:38 PM,-9.29,2.32,3.33,0.02,0.04,0.01
7:40:38 PM,-8.98,2.28,3.48,0.00,-0.04,0.01
7:40:38 PM,-9.07,2.27,3.48,0.01,-0.04,0.01
7:40:38 PM,-9.13,2.30,3.39,-0.02,-0.01,0.01
7:40:38 PM,-9.13,2.41,3.42,0.04,-0.05,0.01
7:40:38 PM,-8.87,2.19,3.49,-0.00,-0.03,0.01
7:40:38 PM,-9.21,2.20,3.36,0.03,-0.03,0.01
7:40:38 PM,-8.94,2.23,3.49,0.00,0.00,0.01
7:40:39 PM,-8.98,2.21,3.49,0.04,-0.05,0.01
7:40:39 PM,-9.07,2.26,3.44,-0.00,0.04,0.01
7:40:39 PM,-9.04,2.36,3.43,0.04,-0.05,0.01
7:40:39 PM,-9.12,2.27,3.42,0.03,-0.05,0.01
7:40:39 PM,-9.19,2.29,3.35,0.02,-0.00,0.01
7:40:39 PM,-9.06,2.34,3.48,0.02,-0.07,0.01
7:40:39 PM,-8.72,2.29,3.61,-0.02,0.01,0.01
7:40:39 PM,-8.94,2.33,3.54,-0.01,-0.04,0.01
7:40:39 PM,-9.17,2.37,3.36,0.02,-0.00,0.01
7:40:39 PM,-9.03,2.31,3.51,0.03,0.03,0.01
7:40:40 PM,-9.12,2.35,3.42,0.00,-0.02,0.01
7:40:40 PM,-8.98,2.43,3.50,-0.01,-0.01,0.01
7:40:40 PM,-9.07,2.41,3.44,0.03,-0.04,0.01
7:40:40 PM,-9.16,2.36,3.42,0.00,-0.00,0.01
7:40:40 PM,-9.02,2.42,3.47,0.02,-0.05,0.01
7:40:40 PM,-9.07,2.35,3.42,0.03,-0.01,0.01
7:40:40 PM,-9.10,2.34,3.46,0.00,-0.04,0.01
7:40:40 PM,-9.05,2.29,3.48,-0.01,0.03,0.01
7:40:40 PM,-9.09,2.29,3.43,0.02,-0.01,0.01
7:40:41 PM,-9.19,2.34,3.38,0.02,-0.06,0.01
7:40:41 PM,-9.07,2.28,3.47,-0.00,0.03,0.01
7:40:41 PM,-9.10,2.42,3.43,0.01,-0.00,0.01
7:40:41 PM,-9.06,2.37,3.45,0.02,-0.03,0.01
7:40:41 PM,-9.30,2.37,3.36,0.02,-0.01,0.01
7:40:41 PM,-8.97,2.35,3.47,0.01,0.05,0.01
7:40:41 PM,-8.99,2.40,3.46,0.01,-0.02,0.01
7:40:41 PM,-9.11,2.40,3.39,0.01,-0.02,0.01
7:40:41 PM,-9.16,2.44,3.41,0.01,0.02,0.01
7:40:41 PM,-9.22,2.33,3.34,0.02,-0.04,0.01
7:40:42 PM,-9.10,2.36,3.45,-0.01,-0.02,0.01
7:40:42 PM,-9.02,2.29,3.47,0.01,-0.03,0.01
7:40:42 PM,-9.83,2.35,2.85,-0.07,-0.17,0.01
7:40:42 PM,-9.18,2.49,3.37,0.00,0.02,0.01
7:40:42 PM,-9.09,2.41,3.48,-0.03,-0.01,0.01
7:40:42 PM,-8.88,2.39,3.52,-0.01,0.00,0.01
7:40:42 PM,-9.05,2.49,3.45,0.02,-0.01,0.01
7:40:42 PM,-9.01,2.42,3.48,0.01,-0.01,0.01
7:40:42 PM,-9.06,2.48,3.45,0.01,-0.01,0.01
7:40:43 PM,-9.01,2.50,3.48,0.00,-0.03,0.01
7:40:43 PM,-9.04,2.55,3.45,0.02,0.02,0.01
7:40:43 PM,-9.08,2.56,3.45,0.00,-0.03,0.01
7:40:43 PM,-9.20,2.49,3.40,-0.00,0.01,0.01
7:40:43 PM,-9.00,2.47,3.49,0.00,0.02,0.01
7:40:43 PM,-9.01,2.45,3.50,0.02,-0.05,0.01
7:40:43 PM,-8.85,2.46,3.53,0.01,0.01,0.01
7:40:43 PM,-9.02,2.49,3.50,0.02,-0.03,0.01
7:40:43 PM,-9.00,2.43,3.52,0.01,0.02,0.01
7:40:43 PM,-9.08,2.47,3.43,0.00,-0.03,0.01
7:40:44 PM,-9.02,2.40,3.49,0.00,0.00,0.01
7:40:44 PM,-9.06,2.45,3.48,-0.01,0.04,0.01
7:40:44 PM,-9.15,2.38,3.50,0.02,-0.02,0.01
7:40:44 PM,-8.96,2.30,3.49,-0.02,-0.06,0.01
7:40:44 PM,-9.11,2.40,3.46,0.03,-0.04,0.01
7:40:44 PM,-9.16,2.45,3.45,-0.02,0.03,0.01
7:40:44 PM,-8.98,2.47,3.54,0.03,-0.06,0.01
7:40:44 PM,-8.98,2.38,3.51,0.01,-0.03,0.01
7:40:44 PM,-9.05,2.42,3.46,0.01,0.04,0.01
7:40:45 PM,-9.05,2.38,3.41,0.01,-0.07,0.01
7:40:45 PM,-9.22,2.45,3.35,0.01,0.00,0.01
7:40:45 PM,-9.00,2.42,3.52,0.04,-0.06,0.01
7:40:45 PM,-9.04,2.31,3.43,0.02,-0.04,0.01
7:40:45 PM,-9.14,2.43,3.46,0.02,-0.01,0.01
7:40:45 PM,-9.00,2.37,3.48,0.00,0.00,0.01
7:40:45 PM,-9.01,2.38,3.57,0.02,-0.06,0.01
7:40:45 PM,-8.85,2.38,3.67,0.01,-0.00,0.01
7:40:45 PM,-8.97,2.37,3.54,-0.03,0.06,0.01
7:40:46 PM,-9.05,2.37,3.47,0.02,-0.01,0.01
7:40:46 PM,-9.12,2.33,3.42,-0.00,-0.03,0.01
7:40:46 PM,-8.98,2.31,3.47,0.01,-0.03,0.01
7:40:46 PM,-9.09,2.39,3.49,0.05,-0.08,0.01
7:40:46 PM,-9.03,2.31,3.46,0.03,-0.06,0.01
7:40:46 PM,-8.92,2.32,3.56,-0.04,0.01,0.01
7:40:46 PM,-9.01,2.39,3.53,0.01,-0.07,0.01
7:40:46 PM,-9.01,2.39,3.54,0.01,-0.08,0.01
7:40:46 PM,-9.02,2.29,3.49,0.03,0.02,0.01
7:40:46 PM,-8.84,2.40,3.60,-0.02,0.00,0.01
7:40:47 PM,-9.05,2.29,3.57,0.04,-0.03,0.01
7:40:47 PM,-9.14,2.39,3.43,-0.01,0.00,0.01
7:40:47 PM,-9.04,2.38,3.53,0.03,-0.07,0.01
7:40:47 PM,-9.13,2.33,3.50,0.03,-0.06,0.01
7:40:47 PM,-8.96,2.34,3.53,-0.02,0.02,0.01
7:40:47 PM,-9.06,2.34,3.49,-0.02,0.04,0.01
7:40:47 PM,-9.03,2.36,3.56,0.01,0.02,0.01
7:40:47 PM,-9.05,2.40,3.46,0.03,0.03,0.01
7:40:47 PM,-9.18,2.33,3.42,0.01,0.00,0.01
7:40:48 PM,-8.91,2.39,3.63,-0.00,-0.00,0.01
7:40:48 PM,-9.02,2.35,3.51,0.02,0.03,0.01
7:40:48 PM,-8.95,2.30,3.50,0.03,-0.00,0.01
7:40:48 PM,-9.06,2.28,3.45,-0.01,0.03,0.01
7:40:48 PM,-9.07,2.33,3.52,0.02,-0.01,0.01
7:40:48 PM,-9.16,2.38,3.42,0.01,-0.01,0.01
7:40:48 PM,-8.92,2.29,3.57,0.02,-0.06,0.01
7:40:48 PM,-8.96,2.31,3.54,0.02,0.02,0.01
7:40:48 PM,-8.90,2.30,3.59,0.01,-0.02,0.01
7:40:48 PM,-8.97,2.33,3.54,-0.00,-0.00,0.01
7:40:49 PM,-8.95,2.30,3.58,0.02,0.01,0.01
7:40:49 PM,-9.03,2.45,3.56,0.03,-0.06,0.01
7:40:49 PM,-9.14,2.45,3.46,-0.01,0.00,0.01
7:40:49 PM,-8.95,2.38,3.54,0.03,-0.01,0.01
7:40:49 PM,-9.00,2.44,3.47,-0.01,-0.03,0.01
7:40:49 PM,-9.09,2.41,3.45,0.01,0.01,0.01
7:40:49 PM,-9.09,2.35,3.49,0.03,-0.02,0.01
7:40:49 PM,-9.00,2.39,3.50,-0.00,-0.04,0.01
7:40:49 PM,-9.02,2.35,3.45,0.02,-0.01,0.01
7:40:50 PM,-8.94,2.40,3.55,-0.00,0.02,0.01
7:40:50 PM,-9.04,2.45,3.46,0.02,-0.02,0.01
7:40:50 PM,-9.05,2.41,3.46,0.04,-0.04,0.01
7:40:50 PM,-9.09,2.48,3.47,0.01,0.06,0.01
7:40:50 PM,-9.00,2.45,3.48,0.03,0.00,0.01
7:40:50 PM,-9.09,2.44,3.43,-0.01,0.04,0.01
7:40:50 PM,-9.10,2.49,3.41,0.02,0.01,0.01
7:40:50 PM,-9.05,2.37,3.42,-0.01,-0.02,0.01
7:40:50 PM,-9.09,2.36,3.39,0.04,-0.06,0.01
7:40:50 PM,-8.94,2.33,3.49,0.02,-0.09,0.01
7:40:51 PM,-8.91,2.39,3.45,0.02,-0.01,0.01
7:40:51 PM,-9.00,2.33,3.47,0.00,-0.00,0.01
7:40:51 PM,-8.94,2.39,3.47,-0.01,-0.01,0.01
7:40:51 PM,-9.18,2.43,3.34,0.01,-0.03,0.01
7:40:51 PM,-9.07,2.37,3.42,-0.02,0.01,0.01
7:40:51 PM,-9.16,2.40,3.38,0.03,-0.02,0.01
7:40:51 PM,-9.13,2.35,3.45,0.00,0.02,0.01
7:40:51 PM,-8.95,2.35,3.50,-0.01,0.03,0.01
7:40:51 PM,-9.07,2.38,3.41,0.05,0.01,0.01
7:40:52 PM,-9.13,2.42,3.40,-0.04,0.05,0.01
7:40:52 PM,-8.86,2.40,3.51,0.02,-0.03,0.01
7:40:52 PM,-9.21,2.37,3.40,0.04,-0.07,0.01
7:40:52 PM,-9.24,2.38,3.32,0.01,-0.01,0.01
7:40:52 PM,-9.18,2.40,3.34,-0.01,-0.07,0.01
7:40:52 PM,-9.02,2.35,3.49,-0.00,-0.03,0.01
7:40:52 PM,-8.98,2.33,3.45,0.02,-0.02,0.01
7:40:52 PM,-9.03,2.32,3.47,-0.02,0.03,0.01
7:40:52 PM,-9.01,2.49,3.44,0.01,-0.01,0.01
7:40:52 PM,-8.99,2.45,3.45,0.03,-0.04,0.01
7:40:53 PM,-9.11,2.43,3.42,0.02,0.01,0.01
7:40:53 PM,-8.96,2.33,3.53,-0.00,0.01,0.01
7:40:53 PM,-9.23,2.59,3.36,0.02,-0.00,0.01
7:40:53 PM,-9.09,2.43,3.45,-0.01,-0.01,0.01
7:40:53 PM,-9.00,2.48,3.46,0.02,-0.05,0.01
7:40:53 PM,-8.94,2.44,3.49,-0.01,-0.00,0.01
7:40:53 PM,-9.05,2.42,3.45,0.04,0.03,0.01
7:40:53 PM,-9.00,2.56,3.50,0.03,-0.09,0.01
7:40:53 PM,-9.11,2.51,3.39,0.04,0.01,0.01
7:40:54 PM,-9.07,2.47,3.43,-0.01,-0.06,0.01
7:40:54 PM,-9.22,2.47,3.32,0.01,0.04,0.01
7:40:54 PM,-9.10,2.50,3.37,0.04,-0.08,0.01
7:40:54 PM,-9.17,2.55,3.35,-0.02,0.06,0.01
7:40:54 PM,-8.95,2.51,3.46,0.02,-0.13,0.01
7:40:54 PM,-9.12,2.46,3.37,0.01,0.02,0.01
7:40:54 PM,-8.99,2.48,3.45,0.00,-0.06,0.01
7:40:54 PM,-9.03,2.57,3.41,0.00,-0.02,0.01
7:40:54 PM,-9.03,2.43,3.40,0.04,0.01,0.01
7:40:55 PM,-8.93,2.47,3.43,-0.02,-0.02,0.01
7:40:55 PM,-9.22,2.49,3.31,0.01,0.05,0.01
7:40:55 PM,-9.03,2.52,3.39,0.02,-0.04,0.01
7:40:55 PM,-8.99,2.54,3.42,0.01,-0.01,0.01
7:40:55 PM,-8.93,2.52,3.47,-0.02,-0.02,0.01
7:40:55 PM,-9.29,2.55,3.29,0.03,-0.02,0.01
7:40:55 PM,-9.11,2.55,3.39,0.00,0.01,0.01
7:40:55 PM,-9.09,2.63,3.39,0.01,-0.02,0.01
7:40:55 PM,-9.00,2.47,3.42,0.02,-0.01,0.01
7:40:56 PM,-9.03,2.54,3.40,-0.01,-0.00,0.01
7:40:56 PM,-9.03,2.47,3.38,0.01,0.02,0.01
7:40:56 PM,-9.10,2.53,3.36,0.01,0.01,0.01
7:40:56 PM,-9.15,2.47,3.36,0.03,0.01,0.01
7:40:56 PM,-9.16,2.53,3.36,0.01,0.01,0.01
7:40:56 PM,-9.08,2.38,3.36,0.02,-0.01,0.01
7:40:56 PM,-9.03,2.51,3.41,-0.01,0.02,0.01
7:40:56 PM,-9.01,2.54,3.39,0.02,-0.04,0.01
7:40:56 PM,-9.28,2.50,3.29,-0.00,0.06,0.01
7:40:56 PM,-9.12,2.52,3.33,0.04,-0.07,0.01
7:40:57 PM,-9.11,2.46,3.41,0.00,-0.06,0.01
7:40:57 PM,-9.09,2.47,3.37,0.01,-0.09,0.01
7:40:57 PM,-9.09,2.46,3.40,0.02,-0.03,0.01
7:40:57 PM,-9.14,2.51,3.35,0.00,-0.00,0.01
7:40:57 PM,-9.17,2.47,3.32,0.01,-0.03,0.01
7:40:57 PM,-8.99,2.46,3.42,-0.01,0.02,0.01
7:40:57 PM,-9.05,2.49,3.39,0.03,-0.06,0.01
7:40:57 PM,-9.24,2.49,3.32,0.02,-0.03,0.01
7:40:57 PM,-9.10,2.43,3.41,0.02,0.02,0.01
7:40:57 PM,-9.18,2.42,3.34,0.03,-0.02,0.01
7:40:58 PM,-9.04,2.41,3.46,0.00,0.02,0.01
7:40:58 PM,-9.01,2.39,3.44,0.01,-0.02,0.01
7:40:58 PM,-9.11,2.44,3.41,0.01,0.01,0.01
7:40:58 PM,-9.19,2.45,3.34,0.04,-0.04,0.01
7:40:58 PM,-9.16,2.44,3.35,0.02,0.11,0.01
7:40:58 PM,-9.27,2.53,3.28,0.02,-0.05,0.01
7:40:58 PM,-8.96,2.34,3.42,0.02,0.03,0.01
7:40:58 PM,-9.14,2.10,3.16,-0.02,0.19,0.01
7:40:58 PM,-8.99,2.15,3.24,-0.02,-0.08,0.01
7:40:59 PM,-8.71,2.13,3.40,-0.02,-0.01,0.01
7:40:59 PM,-9.24,1.89,3.00,-0.00,0.07,0.01
7:40:59 PM,-9.52,1.30,2.80,0.05,-0.03,0.01
7:40:59 PM,-9.51,1.53,2.87,0.01,-0.04,0.01
7:40:59 PM,-9.93,1.65,2.74,0.09,-0.04,0.01
7:40:59 PM,-9.34,1.19,2.96,-0.01,-0.04,0.01
7:40:59 PM,-9.55,1.34,2.89,0.03,0.05,0.01
7:40:59 PM,-9.83,1.34,2.76,0.01,-0.00,0.01
7:40:59 PM,-9.53,0.72,2.74,0.03,0.02,0.01
7:40:59 PM,-10.11,1.07,2.60,0.00,-0.00,0.01
7:41:00 PM,-9.56,0.93,2.83,0.03,-0.05,0.01
7:41:00 PM,-9.61,0.96,2.82,0.00,-0.05,0.01
7:41:00 PM,-9.61,0.96,2.82,0.02,-0.06,0.01
7:41:00 PM,-9.57,0.86,2.83,0.03,-0.02,0.01
7:41:00 PM,-9.69,0.97,2.76,0.04,-0.03,0.01
7:41:00 PM,-9.61,0.85,2.78,-0.01,0.06,0.01
7:41:00 PM,-9.59,0.90,2.79,-0.00,0.04,0.01
7:41:00 PM,-9.82,1.05,2.75,-0.01,-0.05,0.01
7:41:00 PM,-9.57,0.95,2.81,0.02,-0.02,0.01
7:41:01 PM,-9.57,0.98,2.84,0.01,0.00,0.01
7:41:01 PM,-9.63,0.88,2.79,0.00,-0.08,0.01
7:41:01 PM,-9.72,1.11,2.78,0.01,0.01,0.01
7:41:01 PM,-9.41,0.91,2.85,0.02,0.09,0.01
7:41:01 PM,-9.35,0.86,2.96,0.04,0.07,0.01
7:41:01 PM,-9.45,1.02,2.89,-0.00,0.05,0.01
7:41:01 PM,-9.69,1.13,2.77,-0.02,-0.01,0.01
7:41:01 PM,-9.57,1.05,2.84,0.01,-0.04,0.01
7:41:01 PM,-9.54,0.96,2.84,0.00,-0.05,0.01
7:41:01 PM,-9.49,1.01,2.91,-0.01,-0.04,0.01
7:41:02 PM,-9.62,1.08,2.82,-0.00,0.03,0.01
7:41:02 PM,-9.59,1.04,2.79,0.03,0.02,0.01
7:41:02 PM,-9.56,1.05,2.83,0.06,0.09,0.01
7:41:02 PM,-9.64,1.02,2.75,0.01,0.03,0.01
7:41:02 PM,-9.64,1.03,2.79,0.01,-0.01,0.01
7:41:02 PM,-9.55,1.12,2.81,-0.00,-0.07,0.01
7:41:02 PM,-9.84,1.23,2.68,-0.07,-0.03,0.01
7:41:02 PM,-9.82,1.19,2.67,0.01,-0.13,0.01
7:41:02 PM,-9.64,1.19,2.81,-0.06,-0.05,0.01
7:41:03 PM,-9.72,0.96,2.73,0.03,-0.12,0.01
7:41:03 PM,-9.56,1.01,2.86,0.01,0.02,0.01
7:41:03 PM,-9.51,0.99,2.95,-0.03,-0.04,0.01
7:41:03 PM,-9.61,1.12,2.87,0.05,-0.01,0.01
7:41:03 PM,-9.66,0.94,2.83,0.00,-0.05,0.01
7:41:03 PM,-9.64,0.93,2.75,0.04,0.02,0.01
7:41:03 PM,-9.61,1.01,2.74,-0.02,0.01,0.01
7:41:03 PM,-9.62,1.01,2.75,0.03,-0.01,0.01
7:41:03 PM,-9.49,0.98,2.79,0.00,0.00,0.01
7:41:03 PM,-9.69,1.04,2.72,-0.00,0.05,0.01
7:41:04 PM,-9.62,0.99,2.68,0.03,0.02,0.01
7:41:04 PM,-9.68,1.11,2.67,0.02,0.04,0.01
7:41:04 PM,-9.45,1.14,2.81,-0.02,0.02,0.01
7:41:04 PM,-9.48,0.99,2.75,0.02,0.01,0.01
7:41:04 PM,-9.54,1.07,2.70,0.03,0.05,0.01
7:41:04 PM,-9.66,1.08,2.64,0.02,-0.01,0.01
7:41:04 PM,-9.83,1.12,2.60,0.03,-0.00,0.01
7:41:04 PM,-9.68,1.15,2.60,-0.00,0.00,0.01
7:41:04 PM,-9.61,1.10,2.61,0.02,0.01,0.01
7:41:05 PM,-9.64,1.12,2.57,0.04,0.07,0.01
7:41:05 PM,-9.73,1.13,2.53,0.01,-0.02,0.01
7:41:05 PM,-9.82,1.07,2.45,0.04,-0.09,0.01
7:41:05 PM,-9.70,1.10,2.55,0.05,-0.05,0.01
7:41:05 PM,-9.51,0.98,2.59,0.02,-0.12,0.01
7:41:05 PM,-9.77,1.04,2.47,0.02,-0.04,0.01
7:41:05 PM,-9.48,1.01,2.65,0.01,-0.19,0.01
7:41:05 PM,-9.40,1.16,2.71,0.03,0.01,0.01
7:41:05 PM,-9.62,1.09,2.61,-0.00,0.04,0.01
7:41:05 PM,-9.61,1.08,2.59,-0.00,0.01,0.01
7:41:06 PM,-9.64,1.13,2.55,0.04,0.00,0.01
7:41:06 PM,-9.61,1.22,2.64,0.01,-0.01,0.01
7:41:06 PM,-9.47,1.21,2.66,0.01,0.06,0.01
7:41:06 PM,-9.67,1.23,2.62,0.01,-0.04,0.01
7:41:06 PM,-9.63,1.21,2.56,0.04,0.05,0.01
7:41:06 PM,-9.46,1.17,2.72,0.04,0.02,0.01
7:41:06 PM,-9.74,1.25,2.52,-0.02,0.07,0.01
7:41:06 PM,-10.45,1.11,2.09,-0.04,-0.03,0.01
7:41:06 PM,-9.60,1.22,2.66,0.01,-0.06,0.01
7:41:07 PM,-9.38,1.08,2.74,0.02,0.01,0.01
7:41:07 PM,-9.87,1.28,2.56,0.03,-0.01,0.01
7:41:07 PM,-9.59,1.16,2.65,0.01,0.10,0.01
7:41:07 PM,-9.87,1.27,2.48,-0.01,0.05,0.01
7:41:07 PM,-9.70,1.27,2.62,0.00,-0.06,0.01
7:41:07 PM,-9.69,1.26,2.59,-0.01,-0.07,0.01
7:41:07 PM,-9.71,1.29,2.62,-0.02,0.07,0.01
7:41:07 PM,-9.60,1.10,2.64,-0.01,0.01,0.01
7:41:07 PM,-9.85,1.16,2.49,0.02,0.07,0.01
7:41:08 PM,-9.74,1.13,2.53,-0.02,0.01,0.01
7:41:08 PM,-9.60,1.19,2.64,0.01,-0.08,0.01
7:41:08 PM,-9.62,1.10,2.67,-0.04,0.04,0.01
7:41:08 PM,-9.52,1.09,2.66,0.01,-0.01,0.01
7:41:08 PM,-9.74,1.30,2.60,-0.02,-0.06,0.01
7:41:08 PM,-9.47,1.07,2.64,-0.02,0.01,0.01
7:41:08 PM,-9.83,1.28,2.49,0.01,-0.04,0.01
7:41:08 PM,-9.66,1.27,2.58,0.03,-0.00,0.01
7:41:08 PM,-9.64,1.19,2.60,-0.01,0.05,0.01
7:41:08 PM,-9.93,1.34,2.46,0.02,-0.03,0.01
7:41:09 PM,-9.76,1.07,2.50,0.04,0.05,0.01
7:41:09 PM,-9.67,1.34,2.60,-0.02,-0.04,0.01
7:41:09 PM,-9.56,1.14,2.60,0.04,-0.06,0.01
7:41:09 PM,-9.85,1.30,2.39,-0.00,0.09,0.01
7:41:09 PM,-9.50,1.25,2.60,-0.01,-0.12,0.01
7:41:09 PM,-9.75,1.19,2.42,0.05,0.15,0.01
7:41:09 PM,-9.72,1.24,2.49,0.03,-0.02,0.01
7:41:09 PM,-9.72,1.23,2.55,0.05,-0.07,0.01
7:41:09 PM,-8.93,0.91,2.88,-0.15,-0.35,0.01
7:41:10 PM,-9.57,1.11,2.66,0.00,-0.12,0.01
7:41:10 PM,-9.22,0.96,2.85,0.08,0.08,0.01
7:41:10 PM,-9.64,1.15,2.52,-0.01,-0.18,0.01
7:41:10 PM,-9.61,1.00,2.58,-0.07,-0.04,0.01
7:41:10 PM,-9.63,1.10,2.63,0.03,0.07,0.01
7:41:10 PM,-9.89,1.19,2.49,0.01,-0.00,0.01
7:41:10 PM,-9.79,1.24,2.57,-0.01,-0.09,0.01
7:41:10 PM,-9.60,1.12,2.62,0.02,-0.12,0.01
7:41:10 PM,-9.63,1.16,2.63,0.03,0.01,0.01
7:41:10 PM,-9.53,1.04,2.68,-0.01,0.04,0.01
7:41:11 PM,-9.56,1.15,2.72,-0.03,-0.02,0.01
7:41:11 PM,-9.75,1.19,2.61,0.04,0.04,0.01
7:41:11 PM,-9.70,1.23,2.64,-0.03,-0.01,0.01
7:41:11 PM,-9.68,1.26,2.65,0.00,0.02,0.01
7:41:11 PM,-9.71,1.17,2.60,-0.00,0.01,0.01
7:41:11 PM,-9.58,1.20,2.66,0.07,-0.05,0.01
7:41:11 PM,-9.76,1.57,2.63,-0.01,-0.09,0.01
7:41:11 PM,-9.62,1.34,2.68,0.07,-0.10,0.01
7:41:11 PM,-9.76,1.25,2.59,-0.05,0.05,0.01
7:41:12 PM,-9.64,1.20,2.68,-0.00,-0.07,0.01
7:41:12 PM,-9.62,1.18,2.68,0.01,-0.00,0.01
7:41:12 PM,-9.55,1.16,2.71,0.04,-0.02,0.01
7:41:12 PM,-9.66,1.13,2.64,0.01,0.05,0.01
7:41:12 PM,-9.79,1.31,2.62,-0.02,0.03,0.01
7:41:12 PM,-9.67,1.37,2.68,0.06,-0.12,0.01
7:41:12 PM,-9.44,1.07,2.79,-0.01,0.03,0.01
7:41:12 PM,-9.66,1.32,2.75,0.02,-0.08,0.01
7:41:12 PM,-9.57,1.25,2.76,-0.01,-0.01,0.01
7:41:12 PM,-9.67,1.25,2.59,0.05,-0.10,0.01
7:41:13 PM,-9.57,1.13,2.65,0.00,0.04,0.01
7:41:13 PM,-9.65,1.28,2.62,0.02,-0.01,0.01
7:41:13 PM,-9.82,1.24,2.57,-0.05,0.04,0.01
7:41:13 PM,-9.64,1.28,2.61,0.08,0.16,0.01
7:41:13 PM,-9.93,1.34,2.47,-0.04,-0.05,0.01
7:41:13 PM,-9.62,1.19,2.59,-0.03,-0.15,0.01
7:41:13 PM,-9.68,1.23,2.70,0.03,-0.09,0.01
7:41:13 PM,-9.28,1.14,2.98,0.01,-0.03,0.01
7:41:13 PM,-9.47,1.27,2.83,-0.02,0.06,0.01
7:41:14 PM,-9.54,1.23,2.75,0.04,-0.05,0.01
7:41:14 PM,-9.76,1.26,2.66,-0.07,-0.02,0.01
7:41:14 PM,-9.65,1.34,2.64,0.02,-0.04,0.01
7:41:14 PM,-9.85,1.57,2.57,0.02,-0.03,0.01
7:41:14 PM,-9.54,1.31,2.77,0.04,-0.17,0.01
7:41:14 PM,-9.68,1.30,2.74,0.03,-0.09,0.01
7:41:14 PM,-9.45,1.33,2.88,0.03,0.03,0.01
7:41:14 PM,-9.48,1.21,2.81,0.04,0.00,0.01
7:41:14 PM,-9.64,1.28,2.78,0.05,0.12,0.01
7:41:14 PM,-9.97,1.53,2.51,0.05,0.11,0.01
7:41:15 PM,-9.78,1.28,2.66,0.01,-0.09,0.01
7:41:15 PM,-9.59,1.37,2.81,0.01,-0.13,0.01
7:41:15 PM,-9.48,1.42,2.94,0.01,-0.12,0.01
7:41:15 PM,-9.50,1.36,2.97,-0.05,-0.07,0.01
7:41:15 PM,-9.56,1.24,2.86,-0.01,-0.06,0.01
7:41:15 PM,-9.78,1.54,2.73,0.05,0.03,0.01
7:41:15 PM,-9.73,1.30,2.71,-0.03,-0.01,0.01
7:41:15 PM,-9.61,1.48,2.81,0.01,-0.10,0.01
7:41:15 PM,-9.67,1.28,2.80,0.02,0.13,0.01
7:41:16 PM,-9.73,1.36,2.66,0.10,-0.10,0.01
7:41:16 PM,-9.61,1.36,2.77,-0.05,-0.12,0.01
7:41:16 PM,-9.49,1.28,2.78,-0.02,-0.00,0.01
7:41:16 PM,-9.78,1.19,2.61,-0.03,-0.05,0.01
7:41:16 PM,-9.56,1.31,2.69,0.04,-0.13,0.01
7:41:16 PM,-9.57,1.28,2.75,-0.03,-0.01,0.01
7:41:16 PM,-9.68,1.53,2.64,-0.01,0.03,0.01
7:41:16 PM,-9.58,1.52,2.71,0.04,0.01,0.01
7:41:16 PM,-9.90,1.44,2.56,0.03,0.06,0.01
7:41:16 PM,-9.33,1.16,2.92,0.01,-0.09,0.01
7:41:17 PM,-9.50,1.28,2.89,-0.01,0.06,0.01
7:41:17 PM,-9.55,1.21,2.73,0.05,0.14,0.01
7:41:17 PM,-9.66,1.40,2.74,0.06,-0.03,0.01
7:41:17 PM,-9.58,1.30,2.77,0.04,0.08,0.01
7:41:17 PM,-9.78,1.11,2.61,0.02,0.01,0.01
7:41:17 PM,-9.95,1.40,2.57,-0.00,0.00,0.01
7:41:17 PM,-9.45,1.30,2.87,-0.01,-0.17,0.01
7:41:17 PM,-9.50,1.43,2.80,0.04,-0.05,0.01
7:41:17 PM,-9.48,1.21,2.81,-0.01,0.00,0.01
7:41:18 PM,-9.70,1.40,2.63,-0.01,0.10,0.01
7:41:18 PM,-9.56,1.40,2.65,0.03,-0.07,0.01
7:41:18 PM,-9.60,1.42,2.73,0.00,0.05,0.01
7:41:18 PM,-9.45,1.16,2.73,0.04,0.10,0.01
7:41:18 PM,-9.57,1.31,2.65,-0.02,-0.09,0.01
7:41:18 PM,-9.68,1.46,2.64,0.03,-0.01,0.01
7:41:18 PM,-9.43,0.74,2.64,-0.01,0.10,0.01
7:41:18 PM,-9.59,1.23,2.60,-0.02,-0.03,0.01
7:41:18 PM,-9.89,1.33,2.39,-0.02,-0.13,0.01
7:41:18 PM,-9.73,1.37,2.49,-0.02,-0.12,0.01
7:41:19 PM,-9.47,1.21,2.60,0.05,0.11,0.01
7:41:19 PM,-9.51,1.27,2.66,-0.03,-0.03,0.01
7:41:19 PM,-9.88,1.39,2.49,-0.00,-0.08,0.01
7:41:19 PM,-9.38,1.20,2.68,-0.01,-0.04,0.01
7:41:19 PM,-9.71,1.16,2.52,0.06,0.11,0.01
7:41:19 PM,-9.81,1.28,2.50,0.06,0.10,0.01
7:41:19 PM,-9.62,1.39,2.63,-0.03,-0.11,0.01
7:41:19 PM,-9.65,1.43,2.70,-0.01,-0.12,0.01
7:41:19 PM,-9.36,0.99,2.74,0.03,0.02,0.01
7:41:20 PM,-9.90,1.37,2.59,-0.02,-0.08,0.01
7:41:20 PM,-9.48,1.01,2.74,0.03,0.04,0.01
7:41:20 PM,-9.43,1.24,2.83,-0.04,-0.13,0.01
7:41:20 PM,-9.20,1.09,2.87,0.06,0.02,0.01
7:41:20 PM,-9.39,1.25,2.81,0.01,0.15,0.01
7:41:20 PM,-9.55,1.19,2.69,0.02,0.11,0.01
7:41:20 PM,-9.62,1.31,2.68,-0.04,0.09,0.01
7:41:20 PM,-9.60,1.29,2.68,-0.00,-0.00,0.01
7:41:20 PM,-9.68,1.28,2.66,0.05,-0.09,0.01
7:41:21 PM,-9.43,1.31,2.75,-0.04,0.03,0.01
7:41:21 PM,-9.78,1.59,2.59,0.04,0.06,0.01
7:41:21 PM,-9.46,1.25,2.72,0.00,-0.02,0.01
7:41:21 PM,-9.52,1.34,2.77,-0.02,-0.06,0.01
7:41:21 PM,-9.82,1.35,2.54,0.05,0.15,0.01
7:41:21 PM,-10.13,1.58,2.49,0.01,-0.12,0.01
7:41:21 PM,-9.42,1.02,2.76,-0.00,-0.08,0.01
7:41:21 PM,-9.21,1.11,2.91,0.02,0.05,0.01
7:41:21 PM,-9.82,1.51,2.59,0.02,-0.15,0.01
7:41:21 PM,-9.62,1.35,2.68,-0.01,0.03,0.01
7:41:22 PM,-9.82,1.47,2.54,0.04,-0.04,0.01
7:41:22 PM,-9.74,1.34,2.51,0.01,0.03,0.01
7:41:22 PM,-9.90,1.41,2.45,0.04,-0.06,0.01
7:41:22 PM,-9.53,1.28,2.63,0.00,-0.04,0.01
7:41:22 PM,-9.62,1.44,2.62,0.04,0.17,0.01
7:41:22 PM,-9.78,1.54,2.57,0.00,0.01,0.01
7:41:22 PM,-9.67,1.42,2.61,0.02,0.04,0.01
7:41:22 PM,-9.78,1.39,2.56,-0.00,-0.01,0.01
7:41:22 PM,-9.76,1.46,2.52,-0.00,0.09,0.01
7:41:23 PM,-9.57,1.42,2.55,0.02,-0.09,0.01
7:41:23 PM,-9.51,1.42,2.66,0.01,-0.01,0.01
7:41:23 PM,-9.51,1.39,2.66,0.04,-0.03,0.01
7:41:23 PM,-9.69,1.33,2.52,0.03,0.05,0.01
7:41:23 PM,-9.62,1.37,2.61,0.01,0.03,0.01
7:41:23 PM,-9.19,1.65,2.91,0.02,-0.11,0.01
7:41:23 PM,-9.65,1.44,2.61,-0.02,-0.04,0.01
7:41:23 PM,-9.59,1.42,2.65,-0.01,0.00,0.01
7:41:23 PM,-9.48,1.36,2.69,0.02,0.02,0.01
7:41:23 PM,-9.76,1.54,2.52,0.02,-0.03,0.01
7:41:24 PM,-9.60,1.54,2.70,-0.00,-0.12,0.01
7:41:24 PM,-9.61,1.45,2.61,-0.01,0.04,0.01
7:41:24 PM,-9.90,1.55,2.49,0.03,0.01,0.01
7:41:24 PM,-10.00,1.70,2.47,-0.01,-0.13,0.01
7:41:24 PM,-9.48,1.33,2.77,0.01,-0.15,0.01
7:41:24 PM,-9.50,1.46,2.77,0.02,-0.05,0.01
7:41:24 PM,-9.63,1.29,2.58,0.01,-0.03,0.01
7:41:24 PM,-9.69,1.34,2.59,0.04,-0.03,0.01
7:41:24 PM,-9.50,1.25,2.70,0.01,0.04,0.01
7:41:25 PM,-9.52,1.43,2.74,0.04,0.07,0.01
7:41:25 PM,-9.66,1.39,2.58,-0.02,-0.01,0.01
7:41:25 PM,-9.54,1.42,2.70,-0.02,-0.01,0.01
7:41:25 PM,-9.65,1.45,2.64,0.06,-0.02,0.01
7:41:25 PM,-9.53,1.40,2.65,0.01,0.00,0.01
7:41:25 PM,-9.52,1.46,2.73,0.00,0.01,0.01
7:41:25 PM,-9.63,1.53,2.70,0.04,0.01,0.01
7:41:25 PM,-9.83,1.45,2.57,0.00,0.01,0.01
7:41:25 PM,-9.64,1.45,2.69,0.02,0.05,0.01
7:41:25 PM,-9.62,1.45,2.62,0.02,0.01,0.01
7:41:26 PM,-9.64,1.44,2.64,0.05,-0.11,0.01
7:41:26 PM,-9.78,1.53,2.51,0.03,-0.03,0.01
7:41:26 PM,-9.90,1.47,2.49,-0.00,-0.15,0.01
7:41:26 PM,-9.60,1.58,2.73,-0.01,-0.07,0.01
7:41:26 PM,-9.58,1.46,2.64,-0.04,-0.12,0.01
7:41:26 PM,-9.32,1.12,2.89,0.01,-0.01,0.01
7:41:26 PM,-9.54,1.32,2.77,0.02,-0.06,0.01
7:41:26 PM,-9.56,1.27,2.74,0.06,-0.12,0.01
7:41:26 PM,-9.79,1.51,2.64,0.11,-0.04,0.01
7:41:27 PM,-9.67,1.48,2.59,-0.03,0.00,0.01
7:41:27 PM,-9.66,1.56,2.66,0.03,0.03,0.01
7:41:27 PM,-9.27,1.35,2.87,0.02,0.05,0.01
7:41:27 PM,-9.45,1.31,2.73,0.03,-0.01,0.01
7:41:27 PM,-9.81,1.53,2.60,0.01,-0.01,0.01
7:41:27 PM,-9.51,1.44,2.75,0.01,-0.02,0.01
7:41:27 PM,-9.56,1.45,2.68,0.09,0.21,0.01
7:41:27 PM,-9.38,1.61,2.87,-0.04,0.02,0.01
7:41:27 PM,-9.94,1.69,2.53,0.05,-0.00,0.01
7:41:27 PM,-9.35,1.60,2.81,-0.07,-0.16,0.01
7:41:28 PM,-9.72,1.64,2.58,0.05,0.01,0.01
7:41:28 PM,-9.22,1.48,2.90,0.00,0.01,0.01
7:41:28 PM,-9.50,1.53,2.71,0.01,0.03,0.01
7:41:28 PM,-9.54,1.56,2.68,-0.02,-0.01,0.01
7:41:28 PM,-9.56,1.43,2.66,0.03,0.02,0.01
7:41:28 PM,-9.67,1.61,2.62,0.00,-0.04,0.01
7:41:28 PM,-9.85,1.54,2.48,0.04,-0.01,0.01
7:41:28 PM,-9.53,1.59,2.70,-0.00,-0.06,0.01
7:41:28 PM,-9.76,1.52,2.55,0.05,-0.16,0.01
7:41:29 PM,-9.45,1.52,2.73,0.01,0.02,0.01
7:41:29 PM,-9.50,1.44,2.66,0.00,0.05,0.01
7:41:29 PM,-9.50,1.50,2.67,0.03,0.01,0.01
7:41:29 PM,-9.85,1.65,2.45,-0.00,0.02,0.01
7:41:29 PM,-9.84,1.74,2.56,0.02,-0.07,0.01
7:41:29 PM,-9.52,1.61,2.66,-0.06,-0.19,0.01
7:41:29 PM,-9.64,1.65,2.66,0.01,-0.11,0.01
7:41:29 PM,-9.65,1.66,2.60,0.00,-0.02,0.01
7:41:29 PM,-9.38,1.61,2.79,0.03,-0.04,0.01
7:41:29 PM,-9.84,1.65,2.47,0.04,0.09,0.01
7:41:30 PM,-9.71,1.66,2.52,0.09,-0.04,0.01
7:41:30 PM,-9.30,1.79,2.79,-0.07,0.06,0.01
7:41:30 PM,-9.65,1.76,2.63,0.03,-0.02,0.01
7:41:30 PM,-9.50,1.69,2.69,-0.01,0.08,0.01
7:41:30 PM,-9.68,1.68,2.70,-0.02,-0.15,0.01
7:41:30 PM,-9.26,1.36,2.80,0.00,0.08,0.01
7:41:30 PM,-9.58,1.55,2.68,0.00,-0.20,0.01
7:41:30 PM,-9.50,1.62,2.74,0.01,0.05,0.01
7:41:30 PM,-9.49,1.54,2.71,0.03,-0.01,0.01
7:41:31 PM,-9.81,1.77,2.56,0.03,0.17,0.01
7:41:31 PM,-9.72,1.65,2.57,0.01,-0.02,0.01
7:41:31 PM,-9.54,1.53,2.67,0.05,0.07,0.01
7:41:31 PM,-9.58,1.66,2.65,0.01,-0.04,0.01
7:41:31 PM,-9.42,1.71,2.71,0.01,-0.03,0.01
7:41:31 PM,-9.70,1.70,2.55,0.05,0.00,0.01
7:41:31 PM,-9.52,1.66,2.65,0.01,0.05,0.01
7:41:31 PM,-9.78,1.87,2.57,-0.01,0.01,0.01
7:41:31 PM,-9.67,1.75,2.60,0.04,0.15,0.01
7:41:31 PM,-9.67,1.67,2.60,-0.02,-0.08,0.01
7:41:32 PM,-9.65,1.73,2.56,0.01,-0.05,0.01
7:41:32 PM,-9.64,1.77,2.51,0.08,-0.08,0.01
7:41:32 PM,-9.73,1.66,2.44,0.01,0.01,0.01
7:41:32 PM,-9.81,1.73,2.41,-0.00,-0.02,0.01
7:41:32 PM,-9.62,1.75,2.53,0.01,-0.06,0.01
7:41:32 PM,-9.34,1.53,2.68,-0.01,0.05,0.01
7:41:32 PM,-10.08,1.96,2.32,0.08,-0.00,0.01
7:41:32 PM,-9.78,1.71,2.46,0.02,-0.01,0.01
7:41:32 PM,-9.74,1.73,2.46,0.00,-0.00,0.01
7:41:33 PM,-9.72,1.71,2.51,-0.02,-0.13,0.01
7:41:33 PM,-9.74,1.78,2.47,0.03,-0.04,0.01
7:41:33 PM,-9.50,1.74,2.63,-0.03,-0.09,0.01
7:41:33 PM,-9.61,1.75,2.57,0.01,0.04,0.01
7:41:33 PM,-9.56,1.69,2.59,0.06,0.02,0.01
7:41:33 PM,-9.81,1.80,2.47,0.02,0.06,0.01
7:41:33 PM,-9.44,1.84,2.65,0.04,-0.01,0.01
7:41:33 PM,-9.33,1.70,2.74,-0.05,0.02,0.01
7:41:33 PM,-9.79,1.79,2.44,0.00,-0.01,0.01
7:41:34 PM,-9.87,1.94,2.38,-0.04,0.04,0.01
7:41:34 PM,-9.42,1.68,2.62,0.06,-0.01,0.01
7:41:34 PM,-9.65,1.78,2.54,0.01,0.08,0.01
7:41:34 PM,-9.75,1.77,2.51,-0.02,-0.07,0.01
7:41:34 PM,-9.63,1.64,2.48,0.06,0.02,0.01
7:41:34 PM,-9.56,1.66,2.62,-0.02,-0.11,0.01
7:41:34 PM,-9.59,1.76,2.52,0.04,-0.21,0.01
7:41:34 PM,-9.69,1.69,2.45,0.02,-0.04,0.01
7:41:34 PM,-9.52,1.62,2.66,-0.02,-0.01,0.01
7:41:34 PM,-9.45,1.55,2.68,0.00,0.01,0.01
7:41:35 PM,-9.44,1.52,2.63,0.01,0.06,0.01
7:41:35 PM,-9.80,1.55,2.34,0.01,0.09,0.01
7:41:35 PM,-9.78,1.65,2.43,0.03,-0.16,0.01
7:41:35 PM,-9.37,1.51,2.61,0.03,-0.01,0.01
7:41:35 PM,-9.97,1.62,2.33,-0.01,-0.04,0.01
7:41:35 PM,-9.39,1.50,2.65,-0.11,-0.13,0.01
7:41:35 PM,-9.47,1.59,2.62,0.05,-0.04,0.01
7:41:35 PM,-9.65,1.66,2.55,-0.03,-0.10,0.01
7:41:35 PM,-9.48,1.52,2.71,-0.05,-0.04,0.01
7:41:36 PM,-9.48,1.41,2.60,-0.01,0.03,0.01
7:41:36 PM,-9.80,1.56,2.45,0.01,-0.06,0.01
7:41:36 PM,-9.73,1.58,2.51,-0.05,-0.18,0.01
7:41:36 PM,-9.71,1.59,2.48,-0.04,0.19,0.01
7:41:36 PM,-9.98,1.69,2.29,0.01,-0.03,0.01
7:41:36 PM,-9.67,1.39,2.48,-0.04,-0.03,0.01
7:41:36 PM,-9.69,1.21,2.44,-0.07,-0.04,0.01
7:41:36 PM,-9.98,1.16,2.38,-0.22,-0.50,0.01
7:41:36 PM,-9.84,0.82,2.68,0.06,0.13,0.01
7:41:36 PM,-9.84,0.99,2.65,-0.13,0.11,0.01
7:41:37 PM,-9.54,0.94,2.69,0.01,0.08,0.01
7:41:37 PM,-9.76,0.64,2.33,0.31,0.09,0.01
7:41:37 PM,-9.47,1.18,2.70,0.05,-0.03,0.01
7:41:37 PM,-9.88,0.96,2.30,0.01,-0.17,0.01
7:41:37 PM,-9.91,1.23,2.34,0.04,0.09,0.01
7:41:37 PM,-8.87,0.49,2.63,0.27,0.29,0.01
7:41:37 PM,-9.89,1.23,2.22,0.07,0.26,0.01
7:41:37 PM,-9.85,1.14,2.16,0.04,-0.15,0.01
7:41:37 PM,-9.61,1.07,2.26,0.15,-0.03,0.01
7:41:38 PM,-9.90,1.21,2.14,-0.07,-0.19,0.01
7:41:38 PM,-9.95,1.15,2.07,-0.04,-0.14,0.01
7:41:38 PM,-9.91,1.44,2.14,-0.04,-0.10,0.01
7:41:38 PM,-10.02,1.12,1.94,0.10,0.25,0.01
7:41:38 PM,-10.01,1.51,2.13,-0.04,-0.20,0.01
7:41:38 PM,-9.73,1.25,2.21,-0.07,-0.06,0.01
7:41:38 PM,-9.95,1.68,2.23,0.24,-0.34,0.01
7:41:38 PM,-9.51,1.21,2.56,-0.01,-0.09,0.01
7:41:38 PM,-9.67,0.88,2.38,-0.31,-0.15,0.01
7:41:38 PM,-9.93,1.33,2.27,0.03,-0.12,0.01
7:41:39 PM,-9.75,1.17,2.38,-0.08,-0.14,0.01
7:41:39 PM,-9.37,0.99,2.61,0.02,-0.16,0.01
7:41:39 PM,-9.76,1.06,2.38,0.03,-0.06,0.01
7:41:39 PM,-10.01,1.33,2.29,0.05,-0.13,0.01
7:41:39 PM,-9.53,1.19,2.54,0.17,0.21,0.01
7:41:39 PM,-9.41,0.95,2.54,-0.13,0.04,0.01
7:41:39 PM,-10.21,1.32,2.23,-0.23,-0.11,0.01
7:41:39 PM,-9.62,0.78,2.64,0.04,0.11,0.01
7:41:39 PM,-9.61,0.86,2.64,-0.02,0.04,0.01
7:41:40 PM,-10.00,1.02,2.47,0.00,-0.01,0.01
7:41:40 PM,-9.55,0.81,2.69,-0.00,-0.03,0.01
7:41:40 PM,-9.63,0.95,2.62,0.02,-0.07,0.01
7:41:40 PM,-9.63,0.74,2.63,-0.03,0.00,0.01
7:41:40 PM,-9.63,0.92,2.64,0.04,-0.20,0.01
7:41:40 PM,-9.42,0.78,2.79,-0.02,-0.02,0.01
7:41:40 PM,-9.54,0.83,2.63,0.01,-0.09,0.01
7:41:40 PM,-9.50,0.98,2.75,0.02,0.07,0.01
7:41:40 PM,-9.63,0.94,2.62,0.03,-0.07,0.01
7:41:40 PM,-9.66,0.79,2.64,0.02,-0.06,0.01
7:41:41 PM,-10.02,1.07,2.49,-0.02,-0.12,0.01
7:41:41 PM,-9.47,0.92,2.77,-0.03,-0.09,0.01
7:41:41 PM,-9.67,1.02,2.68,0.05,-0.02,0.01
7:41:41 PM,-9.52,0.97,2.75,-0.03,-0.03,0.01
7:41:41 PM,-9.60,0.84,2.60,0.01,-0.14,0.01
7:41:41 PM,-9.68,0.96,2.61,0.04,-0.01,0.01
7:41:41 PM,-9.66,1.05,2.56,-0.01,0.06,0.01
7:41:41 PM,-9.78,1.09,2.52,0.05,-0.06,0.01
7:41:41 PM,-9.47,1.02,2.70,0.01,0.01,0.01
7:41:42 PM,-9.59,1.25,2.66,-0.05,0.01,0.01
7:41:42 PM,-9.81,1.17,2.47,-0.00,0.07,0.01
7:41:42 PM,-9.68,1.21,2.55,0.04,-0.13,0.01
7:41:42 PM,-9.73,1.09,2.55,0.08,-0.08,0.01
7:41:42 PM,-9.67,1.51,2.57,0.08,-0.16,0.01
7:41:42 PM,-9.40,1.16,2.70,-0.04,-0.12,0.01
7:41:42 PM,-9.64,1.19,2.56,0.04,-0.11,0.01
7:41:42 PM,-9.67,1.26,2.56,0.04,0.07,0.01
7:41:42 PM,-9.61,1.29,2.65,-0.01,-0.10,0.01
7:41:42 PM,-9.57,1.32,2.60,0.05,0.02,0.01
7:41:43 PM,-9.72,1.34,2.54,0.02,-0.01,0.01
7:41:43 PM,-9.67,1.38,2.54,0.07,0.06,0.01
7:41:43 PM,-9.80,1.25,2.43,0.09,0.18,0.01
7:41:43 PM,-10.01,1.30,2.25,0.13,0.28,0.01
7:41:43 PM,-9.84,1.30,2.33,0.11,-0.01,0.01
7:41:43 PM,-10.10,1.21,2.15,0.20,0.02,0.01
7:41:43 PM,-10.03,1.38,2.16,0.01,0.25,0.01
7:41:43 PM,-9.71,1.33,2.37,0.02,-0.08,0.01
7:41:43 PM,-9.65,1.38,2.41,0.03,0.09,0.01
7:41:44 PM,-9.87,1.35,2.27,-0.02,0.07,0.01
7:41:44 PM,-10.10,1.44,2.12,0.05,0.10,0.01
7:41:44 PM,-9.86,1.46,2.29,-0.05,0.15,0.01
7:41:44 PM,-9.40,1.24,2.48,0.07,0.07,0.01
7:41:44 PM,-9.81,1.30,2.28,0.04,-0.06,0.01
7:41:44 PM,-9.79,1.24,2.28,-0.01,-0.12,0.01
7:41:44 PM,-9.87,1.26,2.25,0.01,-0.09,0.01
7:41:44 PM,-9.82,1.19,2.23,0.01,-0.06,0.01
7:41:44 PM,-9.51,1.25,2.47,-0.03,-0.07,0.01
7:41:45 PM,-9.13,1.08,2.66,-0.03,0.07,0.01
7:41:45 PM,-8.77,1.33,3.00,-0.06,-0.26,0.01
7:41:45 PM,-9.66,1.45,2.47,-0.03,-0.05,0.01
7:41:45 PM,-9.49,1.40,2.60,0.03,-0.00,0.01
7:41:45 PM,-9.70,1.45,2.48,-0.02,-0.01,0.01
7:41:45 PM,-9.56,1.31,2.52,0.05,-0.17,0.01
7:41:45 PM,-9.58,1.37,2.58,0.01,-0.11,0.01
7:41:45 PM,-9.21,1.40,2.82,-0.07,0.01,0.01
7:41:45 PM,-9.73,1.42,2.51,-0.03,-0.18,0.01
7:41:45 PM,-9.98,1.76,2.43,-0.05,-0.16,0.01
7:41:46 PM,-9.79,1.34,2.56,0.02,-0.12,0.01
7:41:46 PM,-9.63,1.19,2.57,0.02,0.00,0.01
7:41:46 PM,-9.51,1.65,2.78,0.02,0.07,0.01
7:41:46 PM,-9.45,1.50,2.76,0.02,-0.14,0.01
7:41:46 PM,-9.37,1.52,2.95,-0.03,0.04,0.01
7:41:46 PM,-9.33,1.07,2.88,-0.15,-0.05,0.01
7:41:46 PM,-9.46,1.70,2.72,0.12,0.17,0.01
7:41:46 PM,-9.40,1.38,2.75,-0.02,-0.17,0.01
7:41:46 PM,-9.56,1.00,2.68,0.07,-0.22,0.01
7:41:47 PM,-9.49,1.41,2.76,0.02,0.15,0.01
7:41:47 PM,-9.71,1.16,2.55,-0.04,-0.07,0.01
7:41:47 PM,-9.56,1.26,2.73,-0.02,-0.19,0.01
7:41:47 PM,-9.62,1.50,2.65,0.04,-0.04,0.01
7:41:47 PM,-9.65,1.31,2.66,-0.01,-0.25,0.01
7:41:47 PM,-9.56,1.34,2.80,0.08,-0.06,0.01
7:41:47 PM,-9.54,1.39,2.84,-0.03,0.03,0.01
7:41:47 PM,-9.47,1.54,2.88,0.04,-0.09,0.01
7:41:47 PM,-9.59,1.34,2.82,0.04,-0.08,0.01
7:41:47 PM,-9.79,1.68,2.72,-0.02,0.10,0.01
7:41:48 PM,-9.56,1.33,2.78,-0.00,-0.14,0.01
7:41:48 PM,-9.90,1.44,2.64,0.01,-0.03,0.01
7:41:48 PM,-9.48,1.30,2.84,-0.00,0.14,0.01
7:41:48 PM,-9.50,1.43,2.83,0.01,-0.01,0.01
7:41:48 PM,-9.53,1.33,2.87,-0.10,0.03,0.01
7:41:48 PM,-9.41,1.25,2.85,-0.03,0.03,0.01
7:41:48 PM,-9.66,1.44,2.70,0.05,-0.08,0.01
7:41:48 PM,-9.50,1.39,2.77,0.01,-0.06,0.01
7:41:48 PM,-9.28,1.22,2.89,-0.05,0.02,0.01
7:41:49 PM,-9.91,1.32,2.58,0.04,0.01,0.01
7:41:49 PM,-9.83,1.44,2.61,-0.02,-0.05,0.01
7:41:49 PM,-9.82,1.98,2.62,-0.03,0.10,0.01
7:41:49 PM,-9.53,1.57,2.67,-0.01,0.02,0.01
7:41:49 PM,-9.59,1.68,2.76,-0.02,0.09,0.01
7:41:49 PM,-9.64,1.47,2.77,-0.04,-0.05,0.01
7:41:49 PM,-9.89,1.81,2.64,0.03,-0.15,0.01
7:41:49 PM,-9.52,1.46,2.78,-0.05,0.03,0.01
7:41:49 PM,-9.46,1.70,2.91,-0.01,-0.13,0.01
7:41:49 PM,-9.77,1.34,2.66,0.00,-0.10,0.01
7:41:50 PM,-9.30,1.64,2.92,0.08,-0.12,0.01
7:41:50 PM,-9.41,1.58,2.99,-0.09,0.01,0.01
7:41:50 PM,-9.68,1.24,2.71,0.03,0.09,0.01
7:41:50 PM,-9.58,1.47,2.62,-0.02,-0.03,0.01
7:41:50 PM,-9.61,1.48,2.60,0.09,-0.02,0.01
7:41:50 PM,-9.24,1.59,2.86,-0.12,0.05,0.01
7:41:50 PM,-9.52,1.41,2.74,0.03,-0.06,0.01
7:41:50 PM,-9.83,1.68,2.55,0.03,-0.05,0.01
7:41:50 PM,-9.61,1.46,2.70,0.04,-0.15,0.01
7:41:51 PM,-9.67,1.87,2.76,0.01,-0.10,0.01
7:41:51 PM,-9.16,1.51,2.95,-0.10,0.03,0.01
7:41:51 PM,-9.50,1.60,2.85,0.12,0.06,0.01
7:41:51 PM,-9.60,1.57,2.80,-0.03,-0.01,0.01
7:41:51 PM,-9.70,1.75,2.82,0.02,-0.13,0.01
7:41:51 PM,-9.65,1.64,2.77,-0.02,-0.11,0.01
7:41:51 PM,-9.45,1.53,2.98,0.02,-0.03,0.01
7:41:51 PM,-9.28,1.41,3.01,0.05,-0.04,0.01
7:41:51 PM,-9.54,1.64,2.88,0.03,-0.02,0.01
7:41:51 PM,-9.44,1.43,2.85,0.05,-0.07,0.01
7:41:52 PM,-9.37,1.48,2.91,-0.04,-0.19,0.01
7:41:52 PM,-9.37,1.65,2.85,0.03,-0.09,0.01
7:41:52 PM,-9.50,1.59,2.83,-0.01,-0.03,0.01
7:41:52 PM,-9.65,1.61,2.77,0.06,0.01,0.01
7:41:52 PM,-9.37,1.66,2.99,-0.09,-0.07,0.01
7:41:52 PM,-9.72,1.80,2.62,0.10,-0.08,0.01
7:41:52 PM,-9.40,1.56,2.99,-0.00,-0.13,0.01
7:41:52 PM,-9.39,1.38,2.91,-0.02,0.05,0.01
7:41:52 PM,-9.52,1.59,2.87,-0.01,-0.02,0.01
7:41:53 PM,-9.62,1.74,2.82,-0.03,-0.02,0.01
7:41:53 PM,-9.56,1.46,2.73,0.04,-0.00,0.01
7:41:53 PM,-9.63,1.65,2.84,-0.01,0.02,0.01
7:41:53 PM,-9.64,1.54,2.81,0.00,-0.06,0.01
7:41:53 PM,-9.63,1.52,2.81,0.05,-0.09,0.01
7:41:53 PM,-9.50,1.63,2.78,0.04,-0.12,0.01
7:41:53 PM,-9.50,1.65,2.77,0.03,0.00,0.01
7:41:53 PM,-9.59,1.72,2.74,0.02,-0.21,0.01
7:41:53 PM,-9.22,1.60,2.96,0.02,-0.03,0.01
7:41:53 PM,-9.50,1.68,2.71,-0.03,0.11,0.01
7:41:54 PM,-9.42,1.59,2.77,0.00,0.14,0.01
7:41:54 PM,-9.85,1.62,2.42,0.01,-0.05,0.01
7:41:54 PM,-9.42,1.53,2.76,-0.04,0.04,0.01
7:41:54 PM,-9.73,1.72,2.56,0.03,-0.03,0.01
7:41:54 PM,-9.46,1.55,2.71,0.02,-0.06,0.01
7:41:54 PM,-9.56,1.75,2.66,0.04,-0.07,0.01
7:41:54 PM,-9.66,1.66,2.60,-0.01,-0.02,0.01
7:41:54 PM,-9.84,1.83,2.41,0.03,-0.16,0.01
7:41:54 PM,-9.61,1.76,2.55,0.01,-0.08,0.01
7:41:55 PM,-9.38,1.66,2.65,0.07,-0.06,0.01
7:41:55 PM,-9.57,1.86,2.48,0.00,0.15,0.01
7:41:55 PM,-10.16,1.95,2.18,0.02,0.03,0.01
7:41:55 PM,-9.49,1.61,2.57,-0.00,0.08,0.01
7:41:55 PM,-9.62,1.58,2.45,-0.02,-0.26,0.01
7:41:55 PM,-9.57,1.58,2.55,-0.01,0.00,0.01
7:41:55 PM,-9.66,1.79,2.42,0.01,0.07,0.01
7:41:55 PM,-9.74,1.65,2.38,0.05,-0.08,0.01
7:41:55 PM,-9.59,1.60,2.52,0.02,-0.04,0.01
7:41:55 PM,-9.74,1.72,2.49,0.00,-0.15,0.01
7:41:56 PM,-9.48,1.75,2.58,0.12,0.03,0.01
7:41:56 PM,-10.00,1.61,2.16,0.28,0.21,0.01
7:41:56 PM,-9.77,1.42,2.38,0.08,-0.26,0.01
7:41:56 PM,-9.68,1.21,2.47,0.09,-0.26,0.01
7:41:56 PM,-9.63,1.05,2.38,0.30,-0.10,0.01
7:41:56 PM,-9.21,0.87,2.70,0.01,-0.20,0.01
7:41:56 PM,-9.40,1.26,2.72,0.05,0.01,0.01
7:41:56 PM,-9.42,0.98,2.59,-0.07,0.05,0.01
7:41:56 PM,-9.91,1.19,2.29,0.05,0.05,0.01
7:41:57 PM,-9.88,1.15,2.30,-0.03,0.13,0.01
7:41:57 PM,-10.11,1.10,2.08,0.05,-0.04,0.01
7:41:57 PM,-9.70,1.06,2.38,-0.02,-0.10,0.01
7:41:57 PM,-9.83,1.05,2.31,0.01,-0.20,0.01
7:41:57 PM,-9.75,0.90,2.39,0.04,-0.08,0.01
7:41:57 PM,-9.86,1.00,2.29,-0.03,-0.23,0.01
7:41:57 PM,-9.52,0.72,2.46,-0.06,-0.18,0.01
7:41:57 PM,-9.89,1.01,2.23,0.04,0.15,0.01
7:41:57 PM,-9.71,0.96,2.29,-0.02,-0.01,0.01
7:41:58 PM,-10.03,1.21,2.22,0.02,0.02,0.01
7:41:58 PM,-9.79,1.04,2.33,0.03,0.01,0.01
7:41:58 PM,-9.87,1.12,2.33,0.07,-0.03,0.01
7:41:58 PM,-9.91,0.94,2.28,-0.00,-0.01,0.01
7:41:58 PM,-9.80,0.95,2.37,-0.06,-0.07,0.01
7:41:58 PM,-9.54,0.99,2.51,-0.02,0.02,0.01
7:41:58 PM,-10.01,1.17,2.27,0.02,0.04,0.01
7:41:58 PM,-9.98,1.11,2.25,-0.05,0.03,0.01
7:41:58 PM,-10.13,1.05,2.18,0.05,-0.08,0.01
7:41:58 PM,-9.87,1.02,2.32,0.03,0.06,0.01
7:41:59 PM,-10.15,0.87,2.14,0.02,-0.09,0.01
7:41:59 PM,-9.72,0.92,2.35,-0.02,-0.13,0.01
7:41:59 PM,-9.71,0.85,2.35,0.03,-0.02,0.01
7:41:59 PM,-9.62,1.02,2.45,-0.02,-0.04,0.01
7:41:59 PM,-9.57,1.13,2.51,-0.01,-0.05,0.01
7:41:59 PM,-9.48,1.02,2.56,-0.06,-0.20,0.01
7:41:59 PM,-9.79,1.04,2.38,0.02,0.06,0.01
7:41:59 PM,-9.68,0.91,2.52,-0.05,-0.20,0.01
7:41:59 PM,-9.74,0.95,2.42,-0.02,-0.05,0.01
7:42:00 PM,-9.93,1.10,2.36,-0.00,-0.07,0.01
7:42:00 PM,-9.35,1.07,2.61,-0.01,-0.01,0.01
7:42:00 PM,-9.52,1.02,2.53,-0.01,0.05,0.01
7:42:00 PM,-10.01,1.09,2.23,0.00,0.02,0.01
7:42:00 PM,-9.83,1.14,2.40,-0.08,0.01,0.01
7:42:00 PM,-10.00,1.15,2.25,-0.20,-0.13,0.01
7:42:00 PM,-9.82,1.01,2.30,-0.01,-0.19,0.01
7:42:00 PM,-9.75,0.96,2.35,-0.00,-0.04,0.01
7:42:00 PM,-9.58,0.96,2.48,0.03,-0.09,0.01
7:42:00 PM,-9.66,0.97,2.47,0.09,0.05,0.01
7:42:01 PM,-9.55,1.07,2.50,-0.07,-0.22,0.01
7:42:01 PM,-9.33,0.91,2.64,-0.02,-0.07,0.01
7:42:01 PM,-9.57,1.05,2.50,-0.05,-0.05,0.01
7:42:01 PM,-9.43,1.04,2.57,0.02,0.06,0.01
7:42:01 PM,-9.92,1.00,2.29,0.05,0.10,0.01
7:42:01 PM,-9.83,1.07,2.31,0.06,0.08,0.01
7:42:01 PM,-9.51,0.87,2.47,-0.03,-0.04,0.01
7:42:01 PM,-9.81,1.22,2.37,-0.02,-0.07,0.01
7:42:01 PM,-9.77,1.23,2.35,-0.00,-0.17,0.01
7:42:02 PM,-9.68,1.06,2.41,-0.03,-0.00,0.01
7:42:02 PM,-9.90,0.98,2.27,-0.08,-0.22,0.01
7:42:02 PM,-9.74,1.14,2.43,0.02,-0.04,0.01
7:42:02 PM,-9.90,1.14,2.35,0.04,0.02,0.01
7:42:02 PM,-9.74,1.14,2.34,0.03,0.20,0.01
7:42:02 PM,-9.84,1.23,2.27,0.01,-0.06,0.01
7:42:02 PM,-9.60,1.04,2.42,0.04,-0.03,0.01
7:42:02 PM,-9.58,1.26,2.52,0.02,-0.15,0.01
7:42:02 PM,-9.79,1.30,2.33,-0.08,-0.02,0.01
7:42:02 PM,-9.70,1.12,2.36,0.01,-0.11,0.01
7:42:03 PM,-9.70,1.12,2.38,0.02,0.03,0.01
7:42:03 PM,-9.84,1.16,2.22,0.01,0.09,0.01
7:42:03 PM,-10.05,1.26,2.15,0.08,-0.05,0.01
7:42:03 PM,-9.63,1.13,2.46,0.02,-0.14,0.01
7:42:03 PM,-9.58,1.15,2.42,-0.01,0.06,0.01
7:42:03 PM,-9.85,1.20,2.23,0.00,0.10,0.01
7:42:03 PM,-9.83,1.16,2.28,0.01,0.03,0.01
7:42:03 PM,-9.99,1.14,2.16,0.07,0.03,0.01
7:42:03 PM,-9.91,1.17,2.21,0.01,0.08,0.01
7:42:04 PM,-10.18,1.31,2.14,-0.01,-0.02,0.01
7:42:04 PM,-9.95,1.23,2.20,0.00,-0.08,0.01
7:42:04 PM,-9.94,1.18,2.24,-0.02,-0.06,0.01
7:42:04 PM,-10.06,1.15,2.11,0.04,0.17,0.01
7:42:04 PM,-9.86,1.00,2.16,-0.01,-0.00,0.01
7:42:04 PM,-9.87,1.07,2.17,0.04,-0.05,0.01
7:42:04 PM,-9.58,1.03,2.30,0.05,-0.02,0.01
7:42:04 PM,-9.52,0.96,2.44,0.12,0.02,0.01
7:42:04 PM,-9.78,1.10,2.28,0.02,-0.03,0.01
7:42:04 PM,-9.62,1.02,2.27,0.03,0.08,0.01
7:42:05 PM,-9.96,1.21,2.13,-0.01,-0.06,0.01
7:42:05 PM,-10.02,1.30,2.13,0.02,-0.04,0.01
7:42:05 PM,-9.81,1.07,2.22,0.01,-0.09,0.01
7:42:05 PM,-9.49,1.14,2.50,-0.04,0.02,0.01
7:42:05 PM,-9.88,1.28,2.26,-0.02,-0.02,0.01
7:42:05 PM,-9.79,1.11,2.26,-0.01,0.13,0.01
7:42:05 PM,-9.88,1.25,2.29,-0.02,-0.09,0.01
7:42:05 PM,-9.99,1.33,2.21,-0.01,-0.03,0.01
7:42:05 PM,-9.97,1.24,2.27,0.01,-0.08,0.01
7:42:06 PM,-9.41,1.02,2.62,-0.00,-0.08,0.01
7:42:06 PM,-9.49,0.85,2.57,0.01,0.17,0.01
7:42:06 PM,-10.15,1.31,2.14,0.01,-0.07,0.01
7:42:06 PM,-10.07,1.16,2.20,-0.01,-0.07,0.01
7:42:06 PM,-9.65,1.07,2.34,0.03,0.07,0.01
7:42:06 PM,-9.84,1.18,2.20,0.00,0.05,0.01
7:42:06 PM,-9.73,1.17,2.31,0.00,0.03,0.01
7:42:06 PM,-9.67,1.14,2.38,-0.11,-0.10,0.01
7:42:06 PM,-9.96,1.11,2.21,-0.01,0.17,0.01
7:42:06 PM,-9.84,1.10,2.29,-0.05,-0.03,0.01
7:42:07 PM,-9.85,1.26,2.26,0.04,-0.05,0.01
7:42:07 PM,-9.82,1.37,2.35,-0.02,-0.18,0.01
7:42:07 PM,-9.88,1.53,2.47,0.05,-0.03,0.01
7:42:07 PM,-9.60,1.20,2.53,-0.04,0.02,0.01
7:42:07 PM,-9.63,1.21,2.50,0.01,0.04,0.01
7:42:07 PM,-9.66,1.14,2.45,0.03,0.02,0.01
7:42:07 PM,-9.47,1.38,2.69,-0.03,-0.08,0.01
7:42:07 PM,-9.71,1.35,2.54,-0.02,0.04,0.01
7:42:07 PM,-9.62,1.36,2.60,0.05,-0.06,0.01
7:42:08 PM,-9.65,1.00,2.56,-0.05,0.02,0.01
7:42:08 PM,-9.75,1.19,2.51,0.03,-0.08,0.01
7:42:08 PM,-9.93,1.15,2.43,0.04,0.07,0.01
7:42:08 PM,-9.68,1.19,2.52,-0.01,-0.05,0.01
7:42:08 PM,-9.30,1.21,2.76,-0.06,-0.07,0.01
7:42:08 PM,-9.47,1.11,2.64,-0.02,-0.01,0.01
7:42:08 PM,-9.22,1.30,2.81,0.05,-0.02,0.01
7:42:08 PM,-9.72,1.15,2.47,0.04,0.17,0.01
7:42:08 PM,-9.89,1.15,2.47,0.06,0.00,0.01
7:42:09 PM,-9.56,1.28,2.60,-0.04,0.07,0.01
7:42:09 PM,-9.82,1.31,2.45,0.00,-0.02,0.01
7:42:09 PM,-9.66,1.19,2.59,-0.00,0.03,0.01
7:42:09 PM,-9.44,1.33,2.66,-0.01,0.03,0.01
7:42:09 PM,-9.79,1.51,2.55,-0.01,-0.03,0.01
7:42:09 PM,-9.47,1.25,2.60,-0.01,-0.02,0.01
7:42:09 PM,-9.41,1.37,2.63,0.03,0.13,0.01
7:42:09 PM,-9.91,1.49,2.34,-0.01,0.12,0.01
7:42:09 PM,-9.91,1.53,2.40,-0.11,-0.04,0.01
7:42:09 PM,-9.89,1.16,2.33,0.06,-0.15,0.01
7:42:10 PM,-9.52,1.13,2.56,-0.00,-0.11,0.01
7:42:10 PM,-9.55,1.27,2.58,-0.00,-0.11,0.01
7:42:10 PM,-9.60,1.38,2.55,0.04,0.01,0.01
7:42:10 PM,-9.80,1.38,2.49,0.01,-0.08,0.01
7:42:10 PM,-9.55,1.05,2.54,0.02,-0.05,0.01
7:42:10 PM,-9.58,1.21,2.55,0.05,0.00,0.01
7:42:10 PM,-9.56,1.25,2.55,-0.00,-0.03,0.01
7:42:10 PM,-9.59,1.41,2.54,0.03,0.06,0.01
7:42:10 PM,-9.59,1.37,2.52,0.07,0.11,0.01
7:42:11 PM,-9.84,1.46,2.51,-0.03,-0.18,0.01
7:42:11 PM,-9.28,1.14,2.73,-0.05,-0.06,0.01
7:42:11 PM,-9.46,1.20,2.65,-0.01,0.08,0.01
7:42:11 PM,-9.62,1.29,2.60,-0.02,-0.12,0.01
7:42:11 PM,-9.68,1.45,2.55,-0.02,-0.07,0.01
7:42:11 PM,-9.73,1.37,2.52,-0.00,0.00,0.01
7:42:11 PM,-9.48,1.08,2.49,0.03,0.04,0.01
7:42:11 PM,-10.10,1.39,2.23,0.06,-0.04,0.01
7:42:11 PM,-9.45,1.20,2.60,-0.04,-0.08,0.01
7:42:11 PM,-9.97,1.44,2.39,0.02,-0.13,0.01
7:42:12 PM,-9.62,1.41,2.58,0.02,0.02,0.01
7:42:12 PM,-9.47,1.36,2.70,-0.04,-0.16,0.01
7:42:12 PM,-9.45,1.42,2.63,0.01,0.01,0.01
7:42:12 PM,-9.73,1.46,2.54,0.02,-0.10,0.01
7:42:12 PM,-9.63,1.27,2.54,0.04,0.08,0.01
7:42:12 PM,-10.33,1.43,2.15,0.03,0.03,0.01
7:42:12 PM,-9.85,1.29,2.39,0.03,-0.01,0.01
7:42:12 PM,-9.62,1.28,2.55,0.07,-0.14,0.01
7:42:12 PM,-9.49,1.20,2.63,-0.06,0.02,0.01
7:42:13 PM,-9.94,1.35,2.41,0.04,-0.09,0.01
7:42:13 PM,-9.61,1.24,2.58,-0.01,0.03,0.01
7:42:13 PM,-9.55,1.26,2.64,0.04,-0.11,0.01
7:42:13 PM,-9.50,1.25,2.64,-0.02,0.14,0.01
7:42:13 PM,-9.53,1.17,2.61,-0.03,-0.03,0.01
7:42:13 PM,-9.62,1.22,2.55,-0.00,0.10,0.01
7:42:13 PM,-9.69,1.35,2.53,0.10,-0.12,0.01
7:42:13 PM,-9.84,1.39,2.50,0.00,0.04,0.01
7:42:13 PM,-9.59,1.38,2.60,0.00,-0.06,0.01
7:42:13 PM,-10.08,1.45,2.32,0.08,-0.04,0.01
7:42:14 PM,-9.85,1.15,2.38,0.03,-0.04,0.01
7:42:14 PM,-9.45,1.17,2.63,-0.05,-0.12,0.01
7:42:14 PM,-9.60,1.42,2.64,0.01,-0.18,0.01
7:42:14 PM,-9.43,1.25,2.66,-0.05,-0.01,0.01
7:42:14 PM,-10.18,1.47,2.16,-0.02,0.06,0.01
7:42:14 PM,-9.53,1.24,2.50,0.09,-0.15,0.01
7:42:14 PM,-9.79,1.24,2.34,-0.02,0.10,0.01
7:42:14 PM,-9.79,1.45,2.36,-0.03,0.04,0.01
7:42:14 PM,-9.69,1.34,2.29,0.01,-0.01,0.01
7:42:15 PM,-10.16,1.64,2.18,0.05,-0.15,0.01
7:42:15 PM,-9.98,1.47,2.31,-0.07,-0.14,0.01
7:42:15 PM,-9.47,1.32,2.55,0.03,-0.06,0.01
7:42:15 PM,-9.82,1.37,2.28,0.04,0.04,0.01
7:42:15 PM,-9.52,1.19,2.46,0.04,-0.03,0.01
7:42:15 PM,-9.78,1.34,2.34,-0.04,-0.09,0.01
7:42:15 PM,-9.69,1.26,2.36,-0.02,-0.03,0.01
7:42:15 PM,-9.88,1.33,2.27,0.03,-0.04,0.01
7:42:15 PM,-9.66,1.14,2.36,0.03,-0.18,0.01
7:42:15 PM,-9.78,1.35,2.34,0.04,0.02,0.01
7:42:16 PM,-9.82,1.29,2.29,0.05,-0.01,0.01
7:42:16 PM,-9.62,1.27,2.46,-0.10,0.15,0.01
7:42:16 PM,-9.89,1.46,2.25,0.03,-0.10,0.01
7:42:16 PM,-9.95,1.58,2.30,0.04,-0.02,0.01
7:42:16 PM,-9.71,1.32,2.39,0.01,-0.02,0.01
7:42:16 PM,-9.94,1.35,2.23,0.02,0.04,0.01
7:42:16 PM,-9.78,1.50,2.38,0.03,-0.04,0.01
7:42:16 PM,-9.77,1.58,2.48,-0.03,-0.03,0.01
7:42:16 PM,-9.75,1.41,2.41,-0.01,-0.02,0.01
7:42:17 PM,-9.60,1.40,2.43,0.09,-0.11,0.01
7:42:17 PM,-9.67,1.37,2.32,-0.03,-0.09,0.01
7:42:17 PM,-9.69,1.27,2.40,0.01,-0.14,0.01
7:42:17 PM,-9.68,1.57,2.44,-0.04,0.01,0.01
7:42:17 PM,-10.12,1.60,2.15,-0.03,-0.16,0.01
7:42:17 PM,-9.57,1.35,2.45,0.07,-0.01,0.01
7:42:17 PM,-9.55,1.58,2.50,-0.00,-0.04,0.01
7:42:17 PM,-9.94,1.56,2.25,-0.02,-0.03,0.01
7:42:17 PM,-9.61,1.18,2.36,-0.01,-0.03,0.01
7:42:17 PM,-9.75,1.28,2.35,0.02,-0.01,0.01
7:42:18 PM,-9.81,1.37,2.32,-0.00,-0.10,0.01
7:42:18 PM,-9.50,1.26,2.48,0.04,-0.05,0.01
7:42:18 PM,-9.69,1.31,2.36,0.01,0.08,0.01
7:42:18 PM,-9.63,1.36,2.37,0.03,0.02,0.01
7:42:18 PM,-9.75,1.22,2.23,-0.06,0.03,0.01
7:42:18 PM,-9.82,1.30,2.24,0.06,-0.14,0.01
7:42:18 PM,-9.38,1.28,2.50,-0.07,-0.05,0.01
7:42:18 PM,-9.65,1.24,2.35,-0.00,-0.03,0.01
7:42:18 PM,-9.55,1.41,2.49,0.02,0.09,0.01
7:42:19 PM,-9.66,1.28,2.35,0.04,0.07,0.01
7:42:19 PM,-9.73,1.28,2.26,-0.02,0.02,0.01
7:42:19 PM,-9.65,1.50,2.43,0.05,-0.09,0.01
7:42:19 PM,-9.69,1.33,2.34,0.04,0.04,0.01
7:42:19 PM,-9.70,1.43,2.41,0.01,0.07,0.01
7:42:19 PM,-9.68,1.34,2.36,-0.01,-0.03,0.01
7:42:19 PM,-9.68,1.36,2.38,0.05,-0.08,0.01
7:42:19 PM,-9.63,1.38,2.42,0.03,-0.01,0.01
7:42:19 PM,-9.99,1.42,2.24,-0.06,-0.01,0.01
7:42:19 PM,-9.67,1.16,2.41,-0.07,0.02,0.01
7:42:20 PM,-9.71,1.19,2.32,0.01,-0.17,0.01
7:42:20 PM,-9.73,1.22,2.36,0.02,-0.04,0.01
7:42:20 PM,-10.05,1.29,2.19,-0.00,-0.15,0.01
7:42:20 PM,-9.77,1.32,2.43,-0.03,-0.06,0.01
7:42:20 PM,-9.47,1.16,2.58,0.02,-0.16,0.01
7:42:20 PM,-9.54,1.22,2.53,-0.00,0.12,0.01
7:42:20 PM,-9.84,1.21,2.25,0.04,0.02,0.01
7:42:20 PM,-9.85,1.38,2.34,-0.00,-0.02,0.01
7:42:20 PM,-9.91,1.21,2.31,-0.01,0.03,0.01
7:42:21 PM,-9.91,1.23,2.24,0.03,0.01,0.01
7:42:21 PM,-9.78,1.34,2.35,0.01,-0.04,0.01
7:42:21 PM,-9.61,1.33,2.43,0.01,-0.12,0.01
7:42:21 PM,-9.65,1.29,2.36,0.17,0.03,0.01
7:42:21 PM,-9.41,1.23,2.54,-0.01,-0.10,0.01
7:42:21 PM,-9.72,1.29,2.46,-0.00,0.01,0.01
7:42:21 PM,-9.72,1.46,2.43,0.07,0.02,0.01
7:42:21 PM,-9.73,1.38,2.41,-0.04,0.05,0.01
7:42:21 PM,-9.79,1.23,2.30,-0.00,0.00,0.01
7:42:22 PM,-9.74,1.37,2.36,0.00,-0.01,0.01
7:42:22 PM,-9.66,1.24,2.39,-0.05,-0.05,0.01
7:42:22 PM,-10.31,1.63,2.09,-0.00,-0.00,0.01
7:42:22 PM,-9.82,1.40,2.31,0.03,-0.14,0.01
7:42:22 PM,-9.76,1.51,2.34,-0.02,0.03,0.01
7:42:22 PM,-9.53,1.28,2.49,0.01,-0.11,0.01
7:42:22 PM,-9.76,1.36,2.35,-0.03,0.13,0.01
7:42:22 PM,-9.93,1.44,2.26,0.05,0.04,0.01
7:42:22 PM,-9.77,1.39,2.28,0.02,-0.05,0.01
7:42:22 PM,-9.79,1.45,2.30,0.05,-0.09,0.01
7:42:23 PM,-9.53,1.36,2.51,-0.04,-0.09,0.01
7:42:23 PM,-9.63,1.55,2.50,-0.02,0.05,0.01
7:42:23 PM,-9.65,1.56,2.41,-0.01,0.05,0.01
7:42:23 PM,-9.75,1.51,2.27,0.07,-0.10,0.01
7:42:23 PM,-9.88,1.49,2.22,0.04,-0.03,0.01
7:42:23 PM,-9.62,1.35,2.35,0.05,-0.12,0.01
7:42:23 PM,-9.52,1.20,2.46,0.01,-0.06,0.01
7:42:23 PM,-9.52,1.29,2.47,0.05,0.04,0.01
7:42:23 PM,-9.81,1.43,2.32,0.01,0.14,0.01
7:42:24 PM,-9.79,1.37,2.38,-0.00,0.01,0.01
7:42:24 PM,-9.80,1.34,2.33,0.01,-0.02,0.01
7:42:24 PM,-9.84,1.62,2.26,0.01,-0.04,0.01
7:42:24 PM,-9.50,1.43,2.51,-0.00,-0.11,0.01
7:42:24 PM,-9.61,1.46,2.42,-0.00,-0.00,0.01
7:42:24 PM,-9.57,1.28,2.41,0.02,0.09,0.01
7:42:24 PM,-9.66,1.49,2.44,0.01,0.03,0.01
7:42:24 PM,-9.94,1.34,2.19,0.00,0.04,0.01
7:42:24 PM,-9.71,1.43,2.35,-0.00,0.04,0.01
7:42:24 PM,-9.73,1.65,2.38,0.05,-0.08,0.01
7:42:25 PM,-9.39,1.40,2.56,-0.01,0.00,0.01
7:42:25 PM,-9.83,1.43,2.31,0.04,0.02,0.01
7:42:25 PM,-9.74,1.44,2.40,0.04,-0.09,0.01
7:42:25 PM,-10.05,1.43,2.21,0.10,0.09,0.01
7:42:25 PM,-9.46,1.13,2.49,0.04,0.03,0.01
7:42:25 PM,-9.15,1.24,2.67,0.14,0.25,0.01
7:42:25 PM,-9.98,1.36,2.16,0.15,0.04,0.01
7:42:25 PM,-9.77,1.24,2.32,0.11,0.01,0.01
7:42:25 PM,-9.71,0.96,2.37,0.06,-0.19,0.01
7:42:26 PM,-9.76,1.14,2.40,0.12,-0.08,0.01
7:42:26 PM,-10.08,1.29,2.04,0.33,0.06,0.01
7:42:26 PM,-9.33,1.10,2.61,0.12,-0.24,0.01
7:42:26 PM,-9.13,0.87,2.67,-0.02,-0.05,0.01
7:42:26 PM,-9.46,1.24,2.51,0.16,0.11,0.01
7:42:26 PM,-10.27,1.61,2.02,0.12,0.10,0.01
7:42:26 PM,-10.76,1.46,1.78,0.12,-0.22,0.01
7:42:26 PM,-10.40,1.62,1.96,0.15,-0.02,0.01
7:42:26 PM,-9.78,1.29,2.33,0.03,-0.10,0.01
7:42:26 PM,-10.13,1.44,2.26,0.09,-0.22,0.01
7:42:27 PM,-9.94,1.33,2.33,0.02,-0.09,0.01
7:42:27 PM,-9.93,1.42,2.34,-0.00,-0.21,0.01
7:42:27 PM,-9.73,1.22,2.51,0.02,-0.08,0.01
7:42:27 PM,-10.05,1.40,2.26,-0.00,-0.02,0.01
7:42:27 PM,-9.55,1.44,2.62,-0.05,-0.03,0.01
7:42:27 PM,-9.92,1.49,2.47,-0.04,0.03,0.01
7:42:27 PM,-10.25,1.45,2.24,-0.02,0.13,0.01
7:42:27 PM,-10.01,1.43,2.21,0.01,-0.12,0.01
7:42:27 PM,-9.96,1.44,2.29,-0.02,-0.10,0.01
7:42:28 PM,-9.27,1.30,2.55,0.05,-0.12,0.01
7:42:28 PM,-9.55,1.48,2.50,0.02,0.02,0.01
7:42:28 PM,-9.77,1.28,2.43,0.02,-0.09,0.01
7:42:28 PM,-9.53,1.29,2.64,0.01,0.08,0.01
7:42:28 PM,-9.22,1.34,2.73,0.05,0.14,0.01
7:42:28 PM,-9.77,1.34,2.45,0.08,0.00,0.01
7:42:28 PM,-9.47,1.30,2.71,0.10,-0.25,0.01
7:42:28 PM,-9.44,1.24,2.79,0.02,-0.16,0.01
7:42:28 PM,-9.69,1.36,2.66,0.10,-0.15,0.01
7:42:28 PM,-9.57,1.22,2.83,0.07,-0.31,0.01
7:42:29 PM,-9.06,1.02,3.09,0.01,-0.24,0.01
7:42:29 PM,-9.65,1.20,2.74,0.06,-0.16,0.01
7:42:29 PM,-9.15,1.20,3.10,0.02,-0.27,0.01
7:42:29 PM,-9.31,1.20,3.01,-0.06,-0.07,0.01
7:42:29 PM,-9.75,1.13,2.75,0.05,-0.20,0.01
7:42:29 PM,-9.11,1.11,3.17,0.07,-0.10,0.01
7:42:29 PM,-9.46,1.00,3.07,0.05,-0.14,0.01
7:42:29 PM,-9.20,1.14,3.30,0.05,-0.02,0.01
7:42:29 PM,-9.53,1.14,3.14,0.04,0.18,0.01
7:42:30 PM,-9.53,1.12,3.13,-0.03,0.06,0.01
7:42:30 PM,-9.71,1.22,3.03,-0.01,-0.24,0.01
7:42:30 PM,-9.14,1.01,3.35,-0.02,-0.00,0.01
7:42:30 PM,-9.11,1.19,3.41,-0.01,-0.03,0.01
7:42:30 PM,-9.52,1.02,3.12,0.06,0.01,0.01
7:42:30 PM,-9.45,1.10,3.22,-0.01,0.09,0.01
7:42:30 PM,-9.29,1.32,3.34,-0.06,-0.20,0.01
7:42:30 PM,-9.25,1.22,3.30,-0.00,-0.14,0.01
7:42:30 PM,-9.36,1.25,3.34,-0.06,0.02,0.01
7:42:30 PM,-9.45,1.23,3.22,-0.01,-0.00,0.01
7:42:31 PM,-9.63,1.30,3.15,-0.02,-0.05,0.01
7:42:31 PM,-9.25,1.07,3.36,-0.01,-0.14,0.01
7:42:31 PM,-9.43,1.09,3.26,0.01,0.02,0.01
7:42:31 PM,-9.54,1.26,3.19,0.05,0.01,0.01
7:42:31 PM,-9.54,1.10,3.22,0.06,-0.10,0.01
7:42:31 PM,-9.50,1.25,3.19,0.02,0.01,0.01
7:42:31 PM,-9.60,1.17,3.15,0.01,0.16,0.01
7:42:31 PM,-9.67,1.30,3.07,-0.00,-0.04,0.01
7:42:31 PM,-9.41,1.32,3.26,0.05,-0.14,0.01
7:42:32 PM,-9.41,1.26,3.31,0.05,-0.10,0.01
7:42:32 PM,-9.47,1.22,3.22,0.03,0.05,0.01
7:42:32 PM,-9.07,1.29,3.44,0.04,-0.01,0.01
7:42:32 PM,-9.22,1.24,3.28,0.06,-0.04,0.01
7:42:32 PM,-9.47,1.17,3.21,0.01,-0.11,0.01
7:42:32 PM,-9.28,1.53,3.32,-0.01,-0.09,0.01
7:42:32 PM,-8.90,1.26,3.51,0.03,-0.12,0.01
7:42:32 PM,-9.05,1.25,3.42,-0.02,-0.04,0.01
7:42:32 PM,-9.82,1.33,3.02,-0.08,0.01,0.01
7:42:33 PM,-9.24,1.15,3.32,-0.04,-0.13,0.01
7:42:33 PM,-9.33,1.20,3.28,0.00,-0.05,0.01
7:42:33 PM,-9.79,1.31,3.03,0.03,0.05,0.01
7:42:33 PM,-9.05,1.66,3.56,-0.00,-0.08,0.01
7:42:33 PM,-9.09,1.46,3.46,0.01,0.12,0.01
7:42:33 PM,-9.43,1.61,3.28,-0.02,0.01,0.01
7:42:33 PM,-9.20,1.39,3.38,-0.03,-0.04,0.01
7:42:33 PM,-8.70,1.31,3.60,0.01,0.02,0.01
7:42:33 PM,-9.12,1.52,3.39,0.01,0.22,0.01
7:42:33 PM,-9.55,1.57,3.22,-0.03,-0.12,0.01
7:42:34 PM,-9.74,1.33,3.11,0.04,-0.08,0.01
7:42:34 PM,-9.14,1.45,3.44,-0.05,0.05,0.01
7:42:34 PM,-9.05,1.48,3.49,-0.02,-0.00,0.01
7:42:34 PM,-9.14,1.45,3.38,0.02,0.15,0.01
7:42:34 PM,-9.34,1.50,3.29,0.00,0.14,0.01
7:42:34 PM,-9.25,1.59,3.36,0.04,-0.04,0.01
7:42:34 PM,-9.56,1.51,3.23,-0.01,0.08,0.01
7:42:34 PM,-8.71,1.55,3.33,0.00,0.19,0.01
7:42:34 PM,-9.23,1.45,3.43,0.06,0.01,0.01
7:42:35 PM,-9.39,1.58,3.14,-0.07,0.11,0.01
7:42:35 PM,-9.25,1.59,3.28,0.06,-0.02,0.01
7:42:35 PM,-9.14,1.51,3.45,0.04,0.07,0.01
7:42:35 PM,-8.52,1.75,3.83,-0.17,0.12,0.01
7:42:35 PM,-9.78,1.58,2.93,-0.01,-0.02,0.01
7:42:35 PM,-9.35,1.64,3.13,-0.09,-0.12,0.01
7:42:35 PM,-9.32,1.55,3.14,-0.09,-0.09,0.01
7:42:35 PM,-9.66,1.53,3.19,-0.00,-0.05,0.01
7:42:35 PM,-9.52,1.43,3.05,-0.07,0.13,0.01
7:42:35 PM,-9.56,1.41,3.11,0.08,0.08,0.01
7:42:36 PM,-9.58,1.39,2.95,-0.05,0.11,0.01
7:42:36 PM,-9.33,1.58,3.17,0.08,0.03,0.01
7:42:36 PM,-9.40,1.56,3.16,0.00,0.15,0.01
7:42:36 PM,-9.59,1.65,3.17,0.00,0.03,0.01
7:42:36 PM,-9.39,1.41,3.20,0.02,-0.19,0.01
7:42:36 PM,-9.41,1.57,3.28,0.02,0.06,0.01
7:42:36 PM,-9.84,1.50,2.87,0.01,0.00,0.01
7:42:36 PM,-9.53,1.49,3.21,0.02,-0.22,0.01
7:42:36 PM,-9.37,1.19,3.24,-0.01,-0.19,0.01
7:42:37 PM,-9.07,1.33,3.41,0.10,-0.04,0.01
7:42:37 PM,-9.22,1.45,3.36,-0.05,0.04,0.01
7:42:37 PM,-9.17,1.41,3.41,0.06,0.07,0.01
7:42:37 PM,-9.30,1.55,3.24,0.00,0.18,0.01
7:42:37 PM,-8.98,1.36,3.39,0.07,-0.15,0.01
7:42:37 PM,-9.30,1.53,3.22,0.04,0.12,0.01
7:42:37 PM,-9.52,1.53,3.12,-0.01,-0.16,0.01
7:42:37 PM,-9.74,1.64,3.01,-0.00,0.00,0.01
7:42:37 PM,-9.54,1.50,3.07,-0.01,-0.12,0.01
7:42:37 PM,-9.24,1.70,3.32,0.03,-0.12,0.01
7:42:38 PM,-9.33,1.40,3.21,-0.03,-0.09,0.01
7:42:38 PM,-9.55,1.52,3.09,-0.02,-0.08,0.01
7:42:38 PM,-9.65,1.61,3.06,-0.02,-0.02,0.01
7:42:38 PM,-9.44,1.62,3.17,0.01,-0.05,0.01
7:42:38 PM,-9.54,1.52,3.18,-0.00,-0.08,0.01
7:42:38 PM,-8.99,1.44,3.43,0.02,-0.28,0.01
7:42:38 PM,-9.52,1.56,3.19,-0.05,0.02,0.01
