Timestamp,Accel X,Accel Y,Accel Z,Gyro X,Gyro Y,Gyro Z
7:46:56 PM,0.72,-8.91,-4.13,0.03,-0.07,0.01
7:46:56 PM,0.96,-9.00,-4.04,-0.04,-0.14,0.01
7:46:56 PM,0.72,-8.92,-4.05,0.06,-0.12,0.01
7:46:56 PM,0.57,-8.99,-4.06,-0.01,-0.04,0.01
7:46:56 PM,0.62,-9.00,-4.06,-0.04,0.04,0.01
7:46:56 PM,0.76,-8.93,-4.16,-0.06,0.05,0.01
7:46:57 PM,0.78,-8.93,-4.09,-0.01,-0.02,0.01
7:46:57 PM,0.77,-8.88,-4.09,-0.03,-0.01,0.01
7:46:57 PM,0.73,-8.93,-4.23,-0.03,0.05,0.01
7:46:57 PM,0.78,-8.84,-4.37,-0.03,-0.02,0.01
7:46:57 PM,0.83,-8.87,-4.16,0.03,-0.08,0.01
7:46:57 PM,0.70,-8.86,-4.22,-0.03,-0.01,0.01
7:46:57 PM,0.66,-8.99,-4.20,-0.01,0.01,0.01
7:46:57 PM,0.85,-8.93,-4.17,0.00,0.07,0.01
7:46:57 PM,0.83,-8.88,-4.20,-0.00,-0.03,0.01
7:46:57 PM,0.70,-8.94,-4.30,-0.01,-0.04,0.01
7:46:58 PM,0.78,-8.87,-4.31,-0.07,0.04,0.01
7:46:58 PM,0.80,-8.86,-4.27,0.01,-0.05,0.01
7:46:58 PM,0.76,-8.87,-4.30,0.01,-0.03,0.01
7:46:58 PM,0.75,-8.85,-4.31,-0.01,0.01,0.01
7:46:58 PM,0.82,-8.86,-4.29,-0.02,0.02,0.01
7:46:58 PM,0.80,-8.85,-4.23,0.01,-0.03,0.01
7:46:58 PM,0.83,-8.83,-4.31,-0.05,0.00,0.01
7:46:58 PM,0.89,-8.78,-4.41,0.01,0.02,0.01
7:46:58 PM,0.79,-8.84,-4.41,0.08,-0.17,0.01
7:46:59 PM,0.74,-8.87,-4.30,0.05,-0.02,0.01
7:46:59 PM,0.72,-8.90,-4.24,0.01,0.02,0.01
7:46:59 PM,0.74,-8.88,-4.46,-0.01,-0.02,0.01
7:46:59 PM,0.72,-8.94,-4.32,0.07,-0.10,0.01
7:46:59 PM,0.75,-8.99,-4.02,0.05,-0.03,0.01
7:46:59 PM,0.65,-8.91,-4.31,-0.04,0.01,0.01
7:46:59 PM,0.68,-8.83,-4.61,-0.03,-0.04,0.01
7:46:59 PM,0.70,-8.86,-4.31,0.00,-0.06,0.01
7:46:59 PM,0.62,-9.01,-4.31,-0.01,0.02,0.01
7:47:00 PM,0.70,-8.83,-4.55,-0.05,0.02,0.01
7:47:00 PM,0.77,-8.82,-4.42,-0.03,-0.01,0.01
7:47:00 PM,0.85,-8.75,-4.44,-0.04,-0.00,0.01
7:47:00 PM,0.71,-8.79,-4.44,-0.01,0.01,0.01
7:47:00 PM,0.85,-8.85,-4.42,-0.02,0.04,0.01
7:47:00 PM,0.73,-8.80,-4.58,0.04,-0.09,0.01
7:47:00 PM,0.76,-8.81,-4.53,-0.04,0.03,0.01
7:47:00 PM,0.89,-8.75,-4.53,0.04,-0.08,0.01
7:47:00 PM,0.77,-8.76,-4.41,0.00,-0.02,0.01
7:47:00 PM,0.66,-8.77,-4.68,-0.02,-0.02,0.01
7:47:01 PM,0.79,-8.82,-4.56,0.00,-0.01,0.01
7:47:01 PM,0.76,-8.77,-4.63,-0.00,-0.02,0.01
7:47:01 PM,0.75,-8.88,-4.53,0.05,-0.07,0.01
7:47:01 PM,0.79,-8.83,-4.43,0.02,-0.03,0.01
7:47:01 PM,0.72,-8.79,-4.71,0.00,-0.02,0.01
7:47:01 PM,0.79,-8.70,-4.70,0.00,-0.02,0.01
7:47:01 PM,0.64,-8.81,-4.61,0.05,-0.12,0.01
7:47:01 PM,0.54,-8.91,-4.38,0.03,-0.08,0.01
7:47:01 PM,0.65,-8.88,-4.47,-0.01,0.03,0.01
7:47:02 PM,0.73,-8.85,-4.50,0.02,-0.02,0.01
7:47:02 PM,0.80,-8.73,-4.51,0.00,-0.00,0.01
7:47:02 PM,0.74,-8.79,-4.41,0.01,-0.02,0.01
7:47:02 PM,0.62,-9.00,-4.46,0.01,-0.11,0.01
7:47:02 PM,0.66,-8.83,-4.39,-0.02,-0.02,0.01
7:47:02 PM,0.68,-8.78,-4.52,-0.04,-0.01,0.01
7:47:02 PM,0.73,-8.78,-4.51,-0.03,0.01,0.01
7:47:02 PM,0.73,-8.78,-4.44,0.03,-0.06,0.01
7:47:02 PM,0.68,-8.83,-4.52,0.04,-0.04,0.01
7:47:02 PM,0.58,-8.78,-4.65,0.02,0.02,0.01
7:47:03 PM,0.64,-8.85,-4.60,-0.03,-0.01,0.01
7:47:03 PM,0.70,-8.76,-4.52,-0.03,-0.01,0.01
7:47:03 PM,0.72,-8.80,-4.61,0.01,-0.02,0.01
7:47:03 PM,0.79,-8.75,-4.42,0.00,-0.05,0.01
7:47:03 PM,0.63,-8.84,-4.53,0.04,-0.05,0.01
7:47:03 PM,0.68,-8.82,-4.45,-0.01,-0.01,0.01
7:47:03 PM,0.67,-8.82,-4.60,-0.01,-0.02,0.01
7:47:03 PM,0.60,-8.85,-4.52,0.02,-0.06,0.01
7:47:03 PM,0.61,-8.77,-4.40,-0.03,0.01,0.01
7:47:04 PM,0.69,-8.84,-4.47,0.05,-0.01,0.01
7:47:04 PM,0.60,-8.82,-4.40,0.07,-0.07,0.01
7:47:04 PM,0.55,-8.85,-4.43,0.02,-0.01,0.01
7:47:04 PM,0.60,-8.85,-4.39,0.04,-0.04,0.01
7:47:04 PM,0.47,-8.93,-4.52,-0.05,0.02,0.01
7:47:04 PM,0.46,-9.02,-4.37,0.01,0.01,0.01
7:47:04 PM,0.61,-8.77,-4.55,-0.02,0.02,0.01
7:47:04 PM,0.58,-8.82,-4.50,0.03,-0.06,0.01
7:47:04 PM,0.54,-8.79,-4.48,-0.06,0.00,0.01
7:47:04 PM,0.64,-8.80,-4.61,0.01,0.04,0.01
7:47:05 PM,0.61,-8.83,-4.43,0.03,-0.05,0.01
7:47:05 PM,0.49,-8.83,-4.56,0.02,-0.02,0.01
7:47:05 PM,0.62,-8.83,-4.49,-0.02,0.01,0.01
7:47:05 PM,0.57,-8.81,-4.56,0.01,-0.02,0.01
7:47:05 PM,0.50,-8.84,-4.47,0.03,-0.04,0.01
7:47:05 PM,0.45,-8.82,-4.53,0.02,0.01,0.01
7:47:05 PM,0.55,-8.83,-4.39,0.06,-0.04,0.01
7:47:05 PM,0.50,-8.81,-4.46,0.03,-0.02,0.01
7:47:05 PM,0.49,-8.86,-4.53,0.03,-0.04,0.01
7:47:06 PM,0.45,-8.88,-4.50,-0.01,-0.06,0.01
7:47:06 PM,0.42,-8.84,-4.55,-0.02,0.02,0.01
7:47:06 PM,0.46,-8.87,-4.55,-0.01,-0.04,0.01
7:47:06 PM,0.42,-8.83,-4.53,0.01,-0.03,0.01
7:47:06 PM,0.44,-8.91,-4.47,0.02,-0.01,0.01
7:47:06 PM,0.45,-8.88,-4.45,0.04,-0.05,0.01
7:47:06 PM,0.41,-8.84,-4.45,-0.00,-0.02,0.01
7:47:06 PM,0.42,-8.84,-4.49,0.05,-0.06,0.01
7:47:06 PM,0.37,-8.86,-4.46,0.00,-0.05,0.01
7:47:06 PM,0.35,-8.86,-4.48,0.01,0.00,0.01
7:47:07 PM,0.38,-8.88,-4.37,0.06,-0.06,0.01
7:47:07 PM,0.35,-8.87,-4.44,0.01,0.00,0.01
7:47:07 PM,0.42,-8.84,-4.48,0.01,-0.01,0.01
7:47:07 PM,0.30,-8.85,-4.54,0.00,-0.00,0.01
7:47:07 PM,0.31,-8.82,-4.61,-0.04,0.00,0.01
7:47:07 PM,0.35,-8.85,-4.49,-0.02,-0.02,0.01
7:47:07 PM,0.40,-8.85,-4.46,-0.00,0.00,0.01
7:47:07 PM,0.26,-8.86,-4.50,0.05,-0.11,0.01
7:47:07 PM,0.40,-8.84,-4.47,-0.05,0.05,0.01
7:47:08 PM,0.37,-8.84,-4.47,-0.03,0.02,0.01
7:47:08 PM,0.37,-8.85,-4.52,0.01,-0.03,0.01
7:47:08 PM,0.39,-8.83,-4.53,0.02,-0.02,0.01
7:47:08 PM,0.31,-8.91,-4.57,0.03,-0.06,0.01
7:47:08 PM,0.34,-8.83,-4.37,0.02,-0.01,0.01
7:47:08 PM,0.11,-8.83,-4.39,0.03,0.00,0.01
7:47:08 PM,0.35,-8.83,-4.41,-0.01,0.05,0.01
7:47:08 PM,0.32,-8.88,-4.37,0.05,-0.03,0.01
7:47:08 PM,0.34,-8.89,-4.44,0.04,-0.02,0.01
7:47:08 PM,0.27,-8.91,-4.47,0.01,-0.01,0.01
7:47:09 PM,0.34,-8.83,-4.47,0.02,-0.02,0.01
7:47:09 PM,0.32,-8.93,-4.36,0.00,-0.02,0.01
7:47:09 PM,0.36,-8.89,-4.52,-0.06,0.02,0.01
7:47:09 PM,0.35,-8.90,-4.47,0.02,-0.05,0.01
7:47:09 PM,0.30,-8.90,-4.41,0.01,-0.05,0.01
7:47:09 PM,0.32,-8.93,-4.47,0.02,-0.04,0.01
7:47:09 PM,0.29,-8.89,-4.30,0.06,-0.02,0.01
7:47:09 PM,0.20,-8.88,-4.41,0.02,-0.01,0.01
7:47:09 PM,0.36,-8.72,-4.54,-0.04,0.08,0.01
7:47:10 PM,0.53,-8.89,-4.11,0.00,0.10,0.01
7:47:10 PM,0.11,-8.90,-4.89,-0.00,-0.13,0.01
7:47:10 PM,0.15,-9.07,-4.38,0.03,-0.07,0.01
7:47:10 PM,0.39,-8.90,-4.52,-0.02,-0.00,0.01
7:47:10 PM,0.41,-8.93,-4.34,0.01,0.00,0.01
7:47:10 PM,0.35,-8.82,-4.54,-0.03,0.01,0.01
7:47:10 PM,0.46,-8.78,-4.37,0.01,-0.05,0.01
7:47:10 PM,0.46,-8.88,-4.52,0.01,-0.03,0.01
7:47:10 PM,0.39,-8.82,-4.50,-0.01,-0.02,0.01
7:47:11 PM,0.42,-8.82,-4.42,-0.00,0.01,0.01
7:47:11 PM,0.42,-8.86,-4.41,0.03,-0.02,0.01
7:47:11 PM,0.44,-8.87,-4.58,0.01,-0.02,0.01
7:47:11 PM,0.48,-8.85,-4.38,0.01,-0.01,0.01
7:47:11 PM,0.52,-8.81,-4.46,-0.01,0.01,0.01
7:47:11 PM,0.47,-8.81,-4.44,0.00,-0.01,0.01
7:47:11 PM,0.51,-8.83,-4.48,0.02,-0.01,0.01
7:47:11 PM,0.51,-8.85,-4.58,-0.00,-0.01,0.01
7:47:11 PM,0.53,-8.80,-4.39,0.00,0.05,0.01
7:47:11 PM,0.62,-8.80,-4.46,-0.02,0.02,0.01
7:47:12 PM,0.37,-8.83,-4.53,0.01,-0.07,0.01
7:47:12 PM,0.43,-8.81,-4.55,-0.03,-0.01,0.01
7:47:12 PM,0.46,-8.82,-4.52,-0.00,-0.00,0.01
7:47:12 PM,0.52,-8.82,-4.50,-0.02,0.01,0.01
7:47:12 PM,0.52,-8.79,-4.63,-0.00,-0.01,0.01
7:47:12 PM,0.43,-8.78,-4.73,-0.06,0.01,0.01
7:47:12 PM,0.61,-8.79,-4.56,-0.01,0.02,0.01
7:47:12 PM,0.61,-8.79,-4.42,0.06,-0.04,0.01
7:47:12 PM,0.55,-8.79,-4.57,0.04,-0.01,0.01
7:47:13 PM,0.49,-8.84,-4.61,0.06,-0.08,0.01
7:47:13 PM,0.55,-8.84,-4.53,0.01,0.00,0.01
7:47:13 PM,0.59,-8.87,-4.53,0.02,-0.03,0.01
7:47:13 PM,0.49,-8.76,-4.49,-0.02,0.02,0.01
7:47:13 PM,0.60,-8.81,-4.42,0.03,-0.02,0.01
7:47:13 PM,0.55,-8.81,-4.59,0.03,-0.02,0.01
7:47:13 PM,0.57,-8.82,-4.58,-0.01,-0.01,0.01
7:47:13 PM,0.56,-8.77,-4.52,0.00,-0.00,0.01
7:47:13 PM,0.55,-8.80,-4.55,0.00,-0.02,0.01
7:47:13 PM,0.58,-8.84,-4.52,0.02,-0.01,0.01
7:47:14 PM,0.54,-8.80,-4.61,0.00,-0.04,0.01
7:47:14 PM,0.46,-8.85,-4.56,0.02,-0.04,0.01
7:47:14 PM,0.54,-8.80,-4.54,0.00,-0.01,0.01
7:47:14 PM,0.52,-8.83,-4.57,0.02,-0.01,0.01
7:47:14 PM,0.50,-8.83,-4.58,0.05,0.03,0.01
7:47:14 PM,0.51,-8.82,-4.55,0.04,-0.05,0.01
7:47:14 PM,0.57,-8.89,-4.56,0.01,-0.01,0.01
7:47:14 PM,0.58,-8.81,-4.46,0.02,-0.02,0.01
7:47:14 PM,0.59,-8.82,-4.50,-0.00,-0.01,0.01
7:47:15 PM,0.57,-8.78,-4.45,0.01,-0.03,0.01
7:47:15 PM,0.52,-8.80,-4.48,0.01,-0.00,0.01
7:47:15 PM,0.53,-8.83,-4.55,-0.01,0.03,0.01
7:47:15 PM,0.57,-8.82,-4.58,-0.00,0.01,0.01
7:47:15 PM,0.58,-8.83,-4.50,0.01,-0.05,0.01
7:47:15 PM,0.57,-8.81,-4.47,0.02,-0.01,0.01
7:47:15 PM,0.61,-8.81,-4.53,0.01,-0.03,0.01
7:47:15 PM,0.54,-8.80,-4.53,-0.01,-0.01,0.01
7:47:15 PM,0.71,-8.73,-4.74,0.03,-0.04,0.01
7:47:15 PM,0.48,-8.85,-4.64,0.02,-0.02,0.01
7:47:16 PM,0.54,-8.81,-4.56,0.01,-0.00,0.01
7:47:16 PM,0.52,-8.78,-4.50,0.05,-0.01,0.01
7:47:16 PM,0.59,-8.89,-4.42,0.01,-0.02,0.01
7:47:16 PM,0.57,-8.84,-4.40,0.02,-0.03,0.01
7:47:16 PM,0.55,-8.86,-4.34,0.01,-0.01,0.01
7:47:16 PM,0.51,-8.81,-4.59,-0.00,-0.02,0.01
7:47:16 PM,0.60,-8.81,-4.47,-0.03,-0.01,0.01
7:47:16 PM,0.58,-8.82,-4.54,0.00,-0.02,0.01
7:47:16 PM,0.55,-8.82,-4.55,0.02,-0.03,0.01
7:47:17 PM,0.50,-8.82,-4.68,-0.00,-0.02,0.01
7:47:17 PM,0.55,-8.85,-4.52,-0.01,0.02,0.01
7:47:17 PM,0.57,-8.80,-4.58,-0.02,-0.03,0.01
7:47:17 PM,0.55,-8.79,-4.55,-0.03,-0.01,0.01
7:47:17 PM,0.52,-8.83,-4.57,0.01,-0.02,0.01
7:47:17 PM,0.60,-8.82,-4.47,-0.00,-0.02,0.01
7:47:17 PM,0.51,-8.80,-4.58,0.04,-0.05,0.01
7:47:17 PM,0.46,-8.88,-4.49,0.01,-0.01,0.01
7:47:17 PM,0.55,-8.82,-4.63,0.03,-0.03,0.01
7:47:17 PM,0.45,-8.83,-4.60,0.00,-0.03,0.01
7:47:18 PM,0.52,-8.84,-4.72,-0.03,0.02,0.01
7:47:18 PM,0.59,-8.78,-4.51,-0.03,0.01,0.01
7:47:18 PM,0.53,-8.79,-4.56,-0.03,-0.02,0.01
7:47:18 PM,0.50,-8.77,-4.57,-0.00,-0.01,0.01
7:47:18 PM,0.55,-8.82,-4.67,-0.02,-0.03,0.01
7:47:18 PM,0.54,-8.79,-4.51,-0.00,-0.01,0.01
7:47:18 PM,0.57,-8.81,-4.57,-0.03,0.02,0.01
7:47:18 PM,0.56,-8.77,-4.66,0.04,-0.06,0.01
7:47:18 PM,0.52,-8.82,-4.54,0.05,-0.02,0.01
7:47:19 PM,0.55,-8.80,-4.61,0.01,0.01,0.01
7:47:19 PM,0.59,-8.80,-4.52,-0.03,0.01,0.01
7:47:19 PM,0.57,-8.77,-4.59,0.01,-0.02,0.01
7:47:19 PM,0.55,-8.81,-4.57,0.01,-0.02,0.01
7:47:19 PM,0.57,-8.77,-4.58,0.01,-0.03,0.01
7:47:19 PM,0.53,-8.81,-4.69,0.02,-0.03,0.01
7:47:19 PM,0.53,-8.83,-4.59,-0.01,-0.02,0.01
7:47:19 PM,0.52,-8.84,-4.54,-0.00,-0.02,0.01
7:47:19 PM,0.54,-8.86,-4.61,0.02,-0.04,0.01
7:47:19 PM,0.40,-8.84,-4.58,0.02,-0.03,0.01
7:47:20 PM,0.55,-8.79,-4.55,-0.02,0.00,0.01
7:47:20 PM,0.48,-8.82,-4.57,0.01,-0.06,0.01
7:47:20 PM,0.51,-8.83,-4.57,0.02,-0.00,0.01
7:47:20 PM,0.49,-8.83,-4.57,0.01,-0.01,0.01
7:47:20 PM,0.66,-8.78,-4.46,-0.00,0.00,0.01
7:47:20 PM,0.51,-8.77,-4.52,0.05,-0.06,0.01
7:47:20 PM,0.54,-8.79,-4.59,0.03,-0.01,0.01
7:47:20 PM,0.51,-8.79,-4.65,0.02,-0.05,0.01
7:47:20 PM,0.42,-8.83,-4.51,0.00,-0.11,0.01
7:47:21 PM,0.43,-8.83,-4.52,-0.01,0.02,0.01
7:47:21 PM,0.41,-8.83,-4.56,0.02,-0.00,0.01
7:47:21 PM,0.52,-8.82,-4.52,0.09,-0.05,0.01
7:47:21 PM,0.41,-8.86,-4.40,0.08,-0.06,0.01
7:47:21 PM,0.36,-8.90,-4.50,-0.01,0.02,0.01
7:47:21 PM,0.38,-8.85,-4.47,0.02,-0.04,0.01
7:47:21 PM,0.42,-8.83,-4.47,-0.01,0.02,0.01
7:47:21 PM,0.41,-8.84,-4.50,-0.01,0.01,0.01
7:47:21 PM,0.51,-8.82,-4.49,-0.02,0.01,0.01
7:47:21 PM,0.40,-8.84,-4.60,0.02,-0.04,0.01
7:47:22 PM,0.45,-8.81,-4.47,-0.02,-0.00,0.01
7:47:22 PM,0.55,-8.83,-4.67,0.02,-0.02,0.01
7:47:22 PM,0.45,-8.69,-4.74,0.01,-0.11,0.01
7:47:22 PM,0.46,-8.81,-4.49,0.02,-0.07,0.01
7:47:22 PM,0.44,-8.82,-4.57,-0.03,0.03,0.01
7:47:22 PM,0.41,-8.86,-4.63,0.01,-0.04,0.01
7:47:22 PM,0.48,-8.83,-4.51,-0.01,0.03,0.01
7:47:22 PM,0.49,-8.83,-4.60,0.01,-0.01,0.01
7:47:22 PM,0.50,-8.83,-4.48,-0.01,0.00,0.01
7:47:23 PM,0.45,-8.79,-4.60,-0.02,0.01,0.01
7:47:23 PM,0.45,-8.80,-4.54,0.01,-0.06,0.01
7:47:23 PM,0.56,-8.79,-4.65,0.00,-0.00,0.01
7:47:23 PM,0.49,-8.79,-4.47,-0.01,-0.05,0.01
7:47:23 PM,0.51,-8.76,-4.55,0.01,0.00,0.01
7:47:23 PM,0.49,-8.80,-4.64,0.01,-0.00,0.01
7:47:23 PM,0.52,-8.81,-4.56,-0.01,-0.04,0.01
7:47:23 PM,0.43,-8.73,-4.86,-0.01,-0.02,0.01
7:47:23 PM,0.49,-8.80,-4.58,-0.00,0.00,0.01
7:47:24 PM,0.46,-8.75,-4.48,-0.01,-0.01,0.01
7:47:24 PM,0.63,-8.68,-4.79,-0.10,0.00,0.01
7:47:24 PM,0.68,-8.69,-4.64,-0.06,-0.06,0.01
7:47:24 PM,0.57,-8.71,-4.57,-0.02,-0.01,0.01
7:47:24 PM,0.65,-8.73,-4.64,-0.06,-0.02,0.01
7:47:24 PM,0.56,-8.80,-4.59,0.06,-0.06,0.01
7:47:24 PM,0.53,-8.81,-4.73,0.02,-0.05,0.01
7:47:24 PM,0.36,-8.77,-4.64,-0.00,-0.04,0.01
7:47:24 PM,0.44,-8.90,-4.80,-0.07,0.04,0.01
7:47:24 PM,0.44,-8.78,-4.72,0.06,-0.04,0.01
7:47:25 PM,0.47,-8.74,-4.55,0.08,-0.04,0.01
7:47:25 PM,0.50,-8.71,-4.65,0.01,0.09,0.01
7:47:25 PM,0.51,-8.65,-4.92,0.00,0.01,0.01
7:47:25 PM,0.58,-8.82,-4.56,0.02,0.03,0.01
7:47:25 PM,0.59,-8.75,-4.79,0.04,-0.00,0.01
7:47:25 PM,0.54,-8.76,-4.67,0.01,-0.02,0.01
7:47:25 PM,0.55,-8.71,-4.69,-0.02,0.00,0.01
7:47:25 PM,0.58,-8.75,-4.76,0.03,0.01,0.01
7:47:25 PM,0.60,-8.75,-4.69,0.01,0.01,0.01
7:47:26 PM,0.63,-8.75,-4.76,0.01,0.01,0.01
7:47:26 PM,0.63,-8.70,-4.64,0.02,-0.08,0.01
7:47:26 PM,0.60,-8.72,-4.78,0.00,-0.01,0.01
7:47:26 PM,0.56,-8.74,-4.82,0.04,-0.06,0.01
7:47:26 PM,0.65,-8.89,-4.57,0.04,-0.05,0.01
7:47:26 PM,0.62,-8.75,-4.69,-0.03,0.03,0.01
7:47:26 PM,0.63,-8.71,-4.68,0.03,-0.01,0.01
7:47:26 PM,0.64,-8.72,-4.71,0.02,-0.01,0.01
7:47:26 PM,0.62,-8.71,-4.79,0.00,-0.02,0.01
7:47:26 PM,0.57,-8.78,-4.75,0.03,-0.04,0.01
7:47:27 PM,0.56,-8.76,-4.75,0.04,-0.05,0.01
7:47:27 PM,0.63,-8.71,-4.79,-0.00,0.01,0.01
7:47:27 PM,0.64,-8.73,-4.65,0.01,-0.01,0.01
7:47:27 PM,0.60,-8.73,-4.63,-0.02,0.00,0.01
7:47:27 PM,0.61,-8.72,-4.70,0.03,-0.02,0.01
7:47:27 PM,0.66,-8.71,-4.68,0.02,-0.03,0.01
7:47:27 PM,0.60,-8.75,-4.76,0.03,-0.02,0.01
7:47:27 PM,0.59,-8.77,-4.76,0.03,-0.05,0.01
7:47:27 PM,0.56,-8.76,-4.71,0.01,-0.02,0.01
7:47:28 PM,0.56,-8.78,-4.75,0.04,-0.02,0.01
7:47:28 PM,0.64,-8.74,-4.62,0.02,0.02,0.01
7:47:28 PM,0.57,-8.75,-4.69,0.01,-0.02,0.01
7:47:28 PM,0.57,-8.76,-4.75,0.02,-0.02,0.01
7:47:28 PM,0.55,-8.76,-4.78,0.03,-0.06,0.01
7:47:28 PM,0.52,-8.78,-4.58,0.01,-0.03,0.01
7:47:28 PM,0.57,-8.73,-4.76,-0.01,0.00,0.01
7:47:28 PM,0.57,-8.78,-4.75,-0.01,-0.00,0.01
7:47:28 PM,0.62,-8.70,-4.68,0.03,-0.03,0.01
7:47:28 PM,0.61,-8.72,-4.70,-0.01,0.02,0.01
7:47:29 PM,0.63,-8.78,-4.75,0.06,-0.05,0.01
7:47:29 PM,0.57,-8.74,-4.65,-0.00,-0.01,0.01
7:47:29 PM,0.63,-8.76,-4.70,0.01,0.01,0.01
7:47:29 PM,0.62,-8.72,-4.74,0.00,-0.03,0.01
7:47:29 PM,0.62,-8.75,-4.67,-0.03,-0.00,0.01
7:47:29 PM,0.57,-8.78,-4.76,0.01,-0.05,0.01
7:47:29 PM,0.50,-8.84,-4.81,0.05,-0.05,0.01
7:47:29 PM,0.63,-8.73,-4.70,-0.01,-0.01,0.01
7:47:29 PM,0.54,-8.76,-4.75,-0.02,-0.02,0.01
7:47:30 PM,0.55,-8.75,-4.66,-0.00,-0.00,0.01
7:47:30 PM,0.52,-8.81,-4.76,0.06,-0.03,0.01
7:47:30 PM,0.55,-8.75,-4.72,0.07,-0.03,0.01
7:47:30 PM,0.56,-8.78,-4.78,0.03,-0.02,0.01
7:47:30 PM,0.50,-8.75,-4.78,0.04,-0.06,0.01
7:47:30 PM,0.54,-8.76,-4.66,-0.01,-0.02,0.01
7:47:30 PM,0.52,-8.76,-4.81,-0.02,0.00,0.01
7:47:30 PM,0.52,-8.79,-4.78,0.03,-0.07,0.01
7:47:30 PM,0.52,-8.71,-4.70,-0.01,-0.01,0.01
7:47:30 PM,0.46,-8.79,-4.85,0.01,-0.01,0.01
7:47:31 PM,0.56,-8.74,-4.73,0.01,0.02,0.01
7:47:31 PM,0.46,-8.79,-4.78,0.04,-0.07,0.01
7:47:31 PM,0.52,-8.78,-4.73,0.02,-0.00,0.01
7:47:31 PM,0.52,-8.76,-4.85,0.03,-0.01,0.01
7:47:31 PM,0.61,-8.79,-4.68,0.01,-0.01,0.01
7:47:31 PM,0.54,-8.74,-4.75,0.01,-0.06,0.01
7:47:31 PM,0.56,-8.79,-4.68,0.01,-0.03,0.01
7:47:31 PM,0.50,-8.79,-4.65,0.01,-0.03,0.01
7:47:31 PM,0.58,-8.77,-4.62,0.01,-0.01,0.01
7:47:32 PM,0.47,-8.74,-4.77,0.02,0.00,0.01
7:47:32 PM,0.55,-8.82,-4.53,0.01,-0.01,0.01
7:47:32 PM,0.57,-8.77,-4.60,0.02,-0.03,0.01
7:47:32 PM,0.42,-8.76,-4.56,0.01,0.03,0.01
7:47:32 PM,0.55,-8.80,-4.65,0.02,-0.03,0.01
7:47:32 PM,0.49,-8.76,-4.75,0.00,-0.03,0.01
7:47:32 PM,0.54,-8.78,-4.76,0.00,0.01,0.01
7:47:32 PM,0.57,-8.78,-4.66,-0.01,-0.03,0.01
7:47:32 PM,0.54,-8.75,-4.63,0.02,-0.01,0.01
7:47:32 PM,0.60,-8.73,-4.65,0.00,-0.02,0.01
7:47:33 PM,0.62,-8.78,-4.66,-0.01,-0.01,0.01
7:47:33 PM,0.58,-8.77,-4.63,0.00,-0.03,0.01
7:47:33 PM,0.48,-8.78,-4.66,0.13,-0.02,0.01
7:47:33 PM,0.53,-8.79,-4.60,0.08,-0.05,0.01
7:47:33 PM,0.56,-8.81,-4.63,0.06,-0.02,0.01
7:47:33 PM,0.51,-8.84,-4.54,0.02,-0.02,0.01
7:47:33 PM,0.51,-8.84,-4.72,0.02,-0.03,0.01
7:47:33 PM,0.54,-8.83,-4.52,0.02,-0.02,0.01
7:47:33 PM,0.52,-8.81,-4.56,0.02,0.00,0.01
7:47:34 PM,0.47,-8.81,-4.74,0.02,-0.02,0.01
7:47:34 PM,0.44,-8.83,-4.76,-0.01,-0.02,0.01
7:47:34 PM,0.49,-8.83,-4.64,-0.03,-0.01,0.01
7:47:34 PM,0.58,-8.77,-4.63,0.06,-0.04,0.01
7:47:34 PM,0.61,-8.79,-4.61,-0.01,0.04,0.01
7:47:34 PM,0.58,-8.79,-4.59,0.04,-0.06,0.01
7:47:34 PM,0.57,-8.82,-4.59,0.01,-0.01,0.01
7:47:34 PM,0.63,-8.79,-4.55,0.00,-0.02,0.01
7:47:34 PM,0.57,-8.80,-4.69,-0.00,0.01,0.01
7:47:34 PM,0.60,-8.81,-4.61,0.03,-0.05,0.01
7:47:35 PM,0.57,-8.79,-4.62,0.01,-0.03,0.01
7:47:35 PM,0.57,-8.81,-4.67,0.06,-0.07,0.01
7:47:35 PM,0.53,-8.80,-4.70,-0.01,-0.01,0.01
7:47:35 PM,0.61,-8.80,-4.53,0.02,-0.05,0.01
7:47:35 PM,0.60,-8.80,-4.68,0.00,0.00,0.01
7:47:35 PM,0.58,-8.81,-4.70,0.02,-0.02,0.01
7:47:35 PM,0.51,-8.80,-4.67,-0.00,-0.01,0.01
7:47:35 PM,0.56,-8.78,-4.69,0.00,-0.02,0.01
7:47:35 PM,0.52,-8.74,-4.69,-0.04,-0.00,0.01
7:47:36 PM,0.55,-8.82,-4.68,0.00,-0.01,0.01
7:47:36 PM,0.52,-8.80,-4.73,0.01,-0.04,0.01
7:47:36 PM,0.51,-8.81,-4.58,0.04,-0.02,0.01
7:47:36 PM,0.54,-8.79,-4.62,-0.02,0.00,0.01
7:47:36 PM,0.54,-8.79,-4.61,0.03,-0.01,0.01
7:47:36 PM,0.58,-8.77,-4.63,0.00,-0.03,0.01
7:47:36 PM,0.59,-8.77,-4.63,-0.02,0.03,0.01
7:47:36 PM,0.40,-8.72,-4.97,0.01,-0.05,0.01
7:47:36 PM,0.56,-8.79,-4.55,-0.02,0.02,0.01
7:47:37 PM,0.56,-8.79,-4.69,-0.05,-0.01,0.01
7:47:37 PM,0.57,-8.76,-4.58,0.07,-0.04,0.01
7:47:37 PM,0.51,-8.80,-4.67,0.01,-0.03,0.01
7:47:37 PM,0.49,-8.77,-4.71,0.02,-0.02,0.01
7:47:37 PM,0.53,-8.80,-4.72,0.05,-0.06,0.01
7:47:37 PM,0.50,-8.79,-4.64,0.02,-0.03,0.01
7:47:37 PM,0.54,-8.80,-4.63,0.03,-0.03,0.01
7:47:37 PM,0.51,-8.80,-4.61,-0.02,-0.01,0.01
7:47:37 PM,0.46,-8.78,-4.81,-0.04,-0.00,0.01
7:47:37 PM,0.51,-8.78,-4.47,0.02,-0.06,0.01
7:47:38 PM,0.59,-8.77,-4.59,-0.05,0.00,0.01
7:47:38 PM,0.59,-8.74,-4.63,0.00,-0.06,0.01
7:47:38 PM,0.40,-8.90,-4.58,-0.03,0.08,0.01
7:47:38 PM,0.47,-8.80,-4.69,0.03,-0.03,0.01
7:47:38 PM,0.53,-8.77,-4.51,0.01,-0.01,0.01
7:47:38 PM,0.51,-8.78,-4.68,-0.04,0.00,0.01
7:47:38 PM,0.52,-8.76,-4.67,0.01,-0.00,0.01
7:47:38 PM,0.51,-8.82,-4.63,0.06,-0.02,0.01
7:47:38 PM,0.52,-8.76,-4.74,0.04,-0.04,0.01
7:47:39 PM,0.57,-8.78,-4.68,0.02,-0.03,0.01
7:47:39 PM,0.49,-8.80,-4.58,0.03,-0.06,0.01
7:47:39 PM,0.49,-8.79,-4.72,-0.01,-0.01,0.01
7:47:39 PM,0.49,-8.78,-4.64,0.02,-0.06,0.01
7:47:39 PM,0.47,-8.79,-4.75,-0.03,-0.02,0.01
7:47:39 PM,0.43,-8.79,-4.74,0.00,-0.05,0.01
7:47:39 PM,0.42,-8.81,-4.69,-0.03,-0.01,0.01
7:47:39 PM,0.43,-8.81,-4.65,-0.03,0.01,0.01
7:47:39 PM,0.48,-8.79,-4.73,-0.05,0.02,0.01
7:47:39 PM,0.47,-8.77,-4.72,0.04,-0.07,0.01
7:47:40 PM,0.39,-8.78,-4.77,-0.01,-0.04,0.01
7:47:40 PM,0.42,-8.78,-4.60,0.00,-0.00,0.01
7:47:40 PM,0.49,-8.73,-4.60,-0.04,0.07,0.01
7:47:40 PM,0.51,-8.75,-4.64,0.02,-0.03,0.01
7:47:40 PM,0.46,-8.74,-4.66,-0.02,-0.02,0.01
7:47:40 PM,0.42,-8.75,-4.72,0.05,-0.04,0.01
7:47:40 PM,0.49,-8.78,-4.64,-0.00,0.04,0.01
7:47:40 PM,0.50,-8.79,-4.72,0.02,-0.02,0.01
7:47:40 PM,0.47,-8.79,-4.74,0.02,-0.00,0.01
7:47:41 PM,0.51,-8.80,-4.68,0.02,-0.02,0.01
7:47:41 PM,0.51,-8.77,-4.58,-0.00,-0.00,0.01
7:47:41 PM,0.50,-8.78,-4.69,0.02,-0.02,0.01
7:47:41 PM,0.52,-8.78,-4.70,0.03,-0.03,0.01
7:47:41 PM,0.48,-8.79,-4.68,0.04,-0.04,0.01
7:47:41 PM,0.54,-8.81,-4.64,0.00,-0.01,0.01
7:47:41 PM,0.50,-8.77,-4.65,0.02,-0.01,0.01
7:47:41 PM,0.53,-8.80,-4.70,-0.00,-0.01,0.01
7:47:41 PM,0.47,-8.78,-4.60,0.00,-0.04,0.01
7:47:41 PM,0.47,-8.79,-4.60,-0.01,0.02,0.01
7:47:42 PM,0.53,-8.73,-4.65,-0.04,-0.01,0.01
7:47:42 PM,0.49,-8.80,-4.67,0.01,-0.03,0.01
7:47:42 PM,0.49,-8.78,-4.62,0.01,-0.01,0.01
7:47:42 PM,0.53,-8.78,-4.69,0.02,-0.00,0.01
7:47:42 PM,0.49,-8.78,-4.65,-0.00,-0.00,0.01
7:47:42 PM,0.44,-8.81,-4.80,-0.01,0.01,0.01
7:47:42 PM,0.54,-8.80,-4.67,-0.01,-0.03,0.01
7:47:42 PM,0.48,-8.79,-4.67,0.02,-0.02,0.01
7:47:42 PM,0.50,-8.79,-4.71,-0.01,-0.01,0.01
7:47:43 PM,0.47,-8.78,-4.68,0.03,-0.03,0.01
7:47:43 PM,0.55,-8.78,-4.66,-0.00,-0.01,0.01
7:47:43 PM,0.49,-8.74,-4.55,0.02,-0.03,0.01
7:47:43 PM,0.46,-8.77,-4.74,0.02,-0.02,0.01
7:47:43 PM,0.52,-8.76,-4.57,0.02,0.00,0.01
7:47:43 PM,0.52,-8.76,-4.66,-0.02,-0.01,0.01
7:47:43 PM,0.44,-8.79,-4.70,0.02,-0.03,0.01
7:47:43 PM,0.48,-8.78,-4.67,0.00,-0.01,0.01
7:47:43 PM,0.51,-8.75,-4.67,0.01,-0.02,0.01
7:47:43 PM,0.52,-8.73,-4.72,-0.03,0.01,0.01
7:47:44 PM,0.58,-8.70,-5.07,0.03,-0.01,0.01
7:47:44 PM,0.51,-8.78,-4.74,0.03,-0.02,0.01
7:47:44 PM,0.55,-8.73,-4.75,0.04,-0.03,0.01
7:47:44 PM,0.54,-8.74,-4.65,0.01,-0.01,0.01
7:47:44 PM,0.59,-8.73,-4.83,0.01,-0.04,0.01
7:47:44 PM,0.53,-8.73,-4.78,0.00,-0.01,0.01
7:47:44 PM,0.58,-8.80,-4.66,0.04,-0.03,0.01
7:47:44 PM,0.58,-8.80,-4.68,0.02,-0.01,0.01
7:47:44 PM,0.57,-8.77,-4.63,-0.01,-0.02,0.01
7:47:45 PM,0.63,-8.73,-4.59,0.03,0.01,0.01
7:47:45 PM,0.58,-8.80,-4.65,0.03,-0.03,0.01
7:47:45 PM,0.54,-8.76,-4.72,0.00,-0.00,0.01
7:47:45 PM,0.61,-8.75,-4.74,0.02,-0.02,0.01
7:47:45 PM,0.47,-8.84,-4.81,0.01,-0.00,0.01
7:47:45 PM,0.57,-8.76,-4.66,0.01,-0.02,0.01
7:47:45 PM,0.62,-8.77,-4.78,0.01,-0.05,0.01
7:47:45 PM,0.50,-8.79,-4.71,-0.02,0.03,0.01
7:47:45 PM,0.63,-8.80,-4.63,0.00,-0.03,0.01
7:47:45 PM,0.51,-8.71,-4.63,-0.00,-0.04,0.01
7:47:46 PM,0.65,-8.73,-4.64,0.01,-0.01,0.01
7:47:46 PM,0.62,-8.78,-4.84,0.03,-0.01,0.01
7:47:46 PM,0.61,-8.74,-4.78,-0.01,-0.04,0.01
7:47:46 PM,0.63,-8.74,-4.81,0.01,-0.02,0.01
7:47:46 PM,0.63,-8.74,-4.76,-0.01,-0.01,0.01
7:47:46 PM,0.68,-8.69,-4.63,-0.02,0.03,0.01
7:47:46 PM,0.63,-8.66,-4.83,-0.01,-0.04,0.01
7:47:46 PM,0.67,-8.63,-4.75,-0.03,-0.04,0.01
7:47:46 PM,0.67,-8.71,-4.67,0.02,0.06,0.01
7:47:47 PM,0.73,-8.71,-4.84,0.05,-0.09,0.01
7:47:47 PM,0.59,-8.76,-4.88,-0.01,-0.01,0.01
7:47:47 PM,0.63,-8.76,-4.86,0.04,-0.03,0.01
7:47:47 PM,0.65,-8.70,-4.78,-0.00,0.05,0.01
7:47:47 PM,0.85,-8.71,-4.73,0.01,0.02,0.01
7:47:47 PM,0.75,-8.68,-4.74,-0.01,-0.03,0.01
7:47:47 PM,0.70,-8.64,-4.80,-0.01,0.00,0.01
7:47:47 PM,0.75,-8.68,-4.90,-0.02,-0.03,0.01
7:47:47 PM,0.72,-8.67,-4.99,0.04,-0.03,0.01
7:47:48 PM,0.76,-8.69,-4.85,-0.00,-0.03,0.01
7:47:48 PM,0.80,-8.67,-4.88,0.00,-0.00,0.01
7:47:48 PM,0.72,-8.66,-4.99,0.01,-0.06,0.01
7:47:48 PM,0.75,-8.70,-4.84,-0.03,0.03,0.01
7:47:48 PM,0.74,-8.65,-4.92,0.02,-0.02,0.01
7:47:48 PM,0.86,-8.64,-4.79,-0.03,0.01,0.01
7:47:48 PM,0.86,-8.60,-4.89,-0.06,-0.02,0.01
7:47:48 PM,0.79,-8.65,-4.90,0.03,-0.05,0.01
7:47:48 PM,0.75,-8.68,-4.74,-0.03,0.05,0.01
7:47:48 PM,0.78,-8.66,-5.03,-0.01,0.01,0.01
7:47:49 PM,0.87,-8.65,-4.80,0.03,-0.01,0.01
7:47:49 PM,0.83,-8.64,-4.79,0.07,-0.03,0.01
7:47:49 PM,0.73,-8.70,-4.73,0.06,-0.08,0.01
7:47:49 PM,0.76,-8.67,-4.96,0.04,-0.04,0.01
7:47:49 PM,0.74,-8.70,-4.83,-0.00,-0.01,0.01
7:47:49 PM,0.78,-8.70,-4.85,-0.04,0.01,0.01
7:47:49 PM,0.71,-8.71,-4.84,-0.02,-0.03,0.01
7:47:49 PM,0.71,-8.71,-4.76,0.02,-0.03,0.01
7:47:49 PM,0.77,-8.68,-4.88,0.00,-0.01,0.01
7:47:50 PM,0.77,-8.76,-4.81,0.03,-0.01,0.01
7:47:50 PM,0.75,-8.65,-4.85,-0.01,-0.01,0.01
7:47:50 PM,0.83,-8.66,-4.78,-0.03,0.02,0.01
7:47:50 PM,0.82,-8.63,-4.79,-0.03,0.02,0.01
7:47:50 PM,0.73,-8.65,-4.84,-0.00,-0.05,0.01
7:47:50 PM,0.75,-8.71,-4.77,0.01,0.00,0.01
7:47:50 PM,0.77,-8.72,-4.78,0.05,-0.07,0.01
7:47:50 PM,0.70,-8.71,-4.94,-0.01,-0.00,0.01
7:47:50 PM,0.79,-8.66,-4.75,-0.01,-0.01,0.01
7:47:50 PM,0.79,-8.68,-4.81,-0.02,0.01,0.01
7:47:51 PM,0.74,-8.67,-4.85,0.05,-0.04,0.01
7:47:51 PM,0.74,-8.71,-4.86,0.02,0.00,0.01
7:47:51 PM,0.72,-8.69,-5.00,0.01,-0.02,0.01
7:47:51 PM,0.75,-8.73,-4.73,0.03,-0.03,0.01
7:47:51 PM,0.74,-8.67,-4.82,0.01,-0.03,0.01
7:47:51 PM,0.74,-8.67,-4.87,0.02,0.00,0.01
7:47:51 PM,0.74,-8.72,-4.83,0.06,-0.04,0.01
7:47:51 PM,0.75,-8.68,-4.77,0.00,0.00,0.01
7:47:51 PM,0.78,-8.69,-4.88,-0.00,-0.03,0.01
7:47:52 PM,0.73,-8.69,-4.81,0.00,-0.01,0.01
7:47:52 PM,0.72,-8.69,-4.84,0.02,-0.02,0.01
7:47:52 PM,0.76,-8.68,-4.79,0.01,-0.02,0.01
7:47:52 PM,0.80,-8.69,-4.77,-0.03,-0.00,0.01
7:47:52 PM,0.81,-8.69,-4.82,0.05,-0.08,0.01
7:47:52 PM,0.76,-8.67,-4.82,0.02,-0.00,0.01
7:47:52 PM,0.75,-8.69,-4.92,0.00,-0.03,0.01
7:47:52 PM,0.71,-8.70,-4.81,0.02,-0.02,0.01
7:47:52 PM,0.75,-8.67,-4.82,-0.01,-0.01,0.01
7:47:52 PM,0.77,-8.69,-4.72,0.03,-0.01,0.01
7:47:53 PM,0.70,-8.69,-4.85,0.02,-0.04,0.01
7:47:53 PM,0.74,-8.67,-4.81,0.00,0.01,0.01
7:47:53 PM,0.76,-8.67,-4.84,-0.00,-0.03,0.01
7:47:53 PM,0.71,-8.69,-4.79,0.00,0.00,0.01
7:47:53 PM,0.73,-8.68,-4.87,0.00,-0.06,0.01
7:47:53 PM,0.67,-8.69,-4.83,0.01,-0.03,0.01
7:47:53 PM,0.71,-8.68,-4.70,0.00,0.03,0.01
7:47:53 PM,0.80,-8.67,-4.86,-0.00,0.04,0.01
7:47:53 PM,0.70,-8.67,-4.91,0.02,-0.06,0.01
7:47:54 PM,0.72,-8.69,-4.90,-0.01,-0.01,0.01
7:47:54 PM,0.70,-8.68,-4.74,-0.00,-0.00,0.01
7:47:54 PM,0.72,-8.69,-4.81,0.04,0.01,0.01
7:47:54 PM,0.72,-8.68,-4.91,0.03,-0.04,0.01
7:47:54 PM,0.69,-8.69,-4.88,0.02,0.01,0.01
7:47:54 PM,0.77,-8.69,-4.85,0.04,-0.04,0.01
7:47:54 PM,0.70,-8.69,-4.80,-0.01,-0.03,0.01
7:47:54 PM,0.75,-8.69,-5.00,-0.03,0.03,0.01
7:47:54 PM,0.69,-8.69,-4.79,-0.01,-0.04,0.01
7:47:54 PM,0.74,-8.70,-4.87,-0.02,0.00,0.01
7:47:55 PM,0.71,-8.66,-4.88,-0.02,-0.01,0.01
7:47:55 PM,0.77,-8.66,-4.86,-0.02,0.01,0.01
7:47:55 PM,0.78,-8.67,-4.95,0.01,-0.05,0.01
7:47:55 PM,0.76,-8.67,-4.88,0.00,0.00,0.01
7:47:55 PM,0.81,-8.70,-4.89,-0.00,-0.02,0.01
7:47:55 PM,0.79,-8.66,-4.77,-0.00,-0.01,0.01
7:47:55 PM,0.77,-8.66,-4.87,0.02,-0.04,0.01
7:47:55 PM,0.79,-8.66,-4.87,0.01,-0.02,0.01
7:47:55 PM,0.77,-8.66,-4.76,0.00,0.03,0.01
7:47:56 PM,0.82,-8.65,-4.84,-0.00,0.03,0.01
7:47:56 PM,0.73,-8.65,-4.90,0.02,-0.03,0.01
7:47:56 PM,0.76,-8.68,-4.94,-0.01,-0.01,0.01
7:47:56 PM,0.76,-8.66,-4.92,0.01,-0.05,0.01
7:47:56 PM,0.81,-8.64,-4.83,0.00,0.00,0.01
7:47:56 PM,0.77,-8.67,-4.89,0.01,-0.01,0.01
7:47:56 PM,0.81,-8.67,-4.91,-0.02,-0.01,0.01
7:47:56 PM,0.82,-8.66,-4.77,0.01,-0.02,0.01
7:47:56 PM,0.79,-8.66,-4.82,0.01,-0.02,0.01
7:47:56 PM,0.78,-8.65,-4.89,0.03,-0.04,0.01
7:47:57 PM,0.75,-8.69,-4.90,0.03,-0.04,0.01
7:47:57 PM,0.66,-8.66,-4.88,0.01,-0.01,0.01
7:47:57 PM,0.78,-8.68,-4.82,0.02,-0.02,0.01
7:47:57 PM,0.73,-8.66,-4.95,-0.01,-0.03,0.01
7:47:57 PM,0.73,-8.64,-4.86,0.02,-0.02,0.01
7:47:57 PM,0.71,-8.74,-4.84,0.06,-0.05,0.01
7:47:57 PM,0.74,-8.66,-4.86,-0.01,-0.01,0.01
7:47:57 PM,0.73,-8.69,-4.87,0.04,-0.05,0.01
7:47:57 PM,0.76,-8.68,-4.83,0.01,-0.01,0.01
7:47:58 PM,0.69,-8.67,-4.87,-0.00,-0.00,0.01
7:47:58 PM,0.72,-8.72,-4.91,0.03,-0.06,0.01
7:47:58 PM,0.72,-8.72,-4.83,0.05,-0.02,0.01
7:47:58 PM,0.73,-8.70,-4.78,0.02,-0.01,0.01
7:47:58 PM,0.73,-8.65,-4.76,0.04,-0.02,0.01
7:47:58 PM,0.77,-8.69,-4.75,0.00,-0.02,0.01
7:47:58 PM,0.74,-8.75,-4.79,0.04,-0.04,0.01
7:47:58 PM,0.69,-8.69,-4.74,-0.01,-0.02,0.01
7:47:58 PM,0.73,-8.74,-4.77,0.00,-0.03,0.01
7:47:58 PM,0.59,-8.73,-4.95,0.03,-0.01,0.01
7:47:59 PM,0.62,-8.75,-4.85,-0.01,-0.02,0.01
7:47:59 PM,0.66,-8.70,-4.70,-0.07,0.03,0.01
7:47:59 PM,0.75,-8.66,-4.83,0.00,0.00,0.01
7:47:59 PM,0.68,-8.65,-4.76,0.03,-0.01,0.01
7:47:59 PM,0.74,-8.68,-4.86,0.03,-0.02,0.01
7:47:59 PM,0.72,-8.69,-4.81,0.02,0.00,0.01
7:47:59 PM,0.75,-8.69,-4.81,-0.00,-0.00,0.01
7:47:59 PM,0.68,-8.69,-4.90,0.02,-0.03,0.01
7:47:59 PM,0.71,-8.66,-4.95,0.00,-0.01,0.01
7:48:00 PM,0.71,-8.71,-4.87,0.03,-0.01,0.01
7:48:00 PM,0.74,-8.67,-4.85,-0.00,-0.01,0.01
7:48:00 PM,0.75,-8.67,-4.80,0.01,-0.02,0.01
7:48:00 PM,0.77,-8.70,-4.74,0.04,-0.02,0.01
7:48:00 PM,0.73,-8.70,-4.83,0.03,-0.02,0.01
7:48:00 PM,0.77,-8.67,-4.85,0.00,0.00,0.01
7:48:00 PM,0.80,-8.63,-4.79,-0.01,-0.00,0.01
7:48:00 PM,0.71,-8.68,-4.95,-0.01,-0.02,0.01
7:48:00 PM,0.76,-8.69,-4.90,0.02,-0.02,0.01
7:48:01 PM,0.60,-8.71,-5.09,0.03,-0.05,0.01
7:48:01 PM,0.72,-8.71,-4.92,-0.02,-0.00,0.01
7:48:01 PM,0.75,-8.71,-4.85,0.02,-0.03,0.01
7:48:01 PM,0.70,-8.66,-4.75,0.02,-0.01,0.01
7:48:01 PM,0.82,-8.66,-4.79,0.02,0.00,0.01
7:48:01 PM,0.75,-8.65,-4.82,-0.02,-0.02,0.01
7:48:01 PM,0.79,-8.69,-4.90,-0.00,0.01,0.01
7:48:01 PM,0.72,-8.66,-4.86,0.04,-0.05,0.01
7:48:01 PM,0.82,-8.68,-4.80,-0.02,-0.03,0.01
7:48:01 PM,0.57,-8.69,-4.99,-0.02,0.00,0.01
7:48:02 PM,0.64,-8.66,-4.94,-0.03,0.01,0.01
7:48:02 PM,0.70,-8.63,-4.91,-0.02,-0.01,0.01
7:48:02 PM,0.67,-8.64,-5.02,-0.04,0.02,0.01
7:48:02 PM,0.82,-8.63,-4.81,0.00,-0.01,0.01
7:48:02 PM,0.82,-8.63,-4.87,-0.02,-0.00,0.01
7:48:02 PM,0.74,-8.64,-4.88,0.03,-0.03,0.01
7:48:02 PM,0.81,-8.61,-5.03,0.03,-0.00,0.01
7:48:02 PM,0.77,-8.65,-4.98,-0.00,-0.02,0.01
7:48:02 PM,0.74,-8.64,-4.92,-0.00,-0.01,0.01
7:48:03 PM,0.76,-8.68,-4.96,0.02,-0.03,0.01
7:48:03 PM,0.78,-8.64,-4.90,0.01,-0.01,0.01
7:48:03 PM,0.80,-8.64,-4.87,0.00,-0.01,0.01
7:48:03 PM,0.80,-8.66,-4.96,0.00,-0.02,0.01
7:48:03 PM,0.78,-8.61,-4.70,0.04,-0.01,0.01
7:48:03 PM,0.77,-8.62,-4.84,0.03,-0.02,0.01
7:48:03 PM,0.69,-8.59,-4.85,-0.00,0.02,0.01
7:48:03 PM,0.74,-8.65,-4.90,0.02,-0.02,0.01
7:48:03 PM,0.71,-8.66,-4.85,-0.01,-0.02,0.01
7:48:03 PM,0.80,-8.67,-4.86,0.01,-0.01,0.01
7:48:04 PM,0.74,-8.63,-4.77,-0.02,-0.02,0.01
7:48:04 PM,0.81,-8.65,-4.87,-0.02,-0.01,0.01
7:48:04 PM,0.76,-8.67,-4.88,0.01,-0.03,0.01
7:48:04 PM,0.73,-8.65,-5.00,-0.02,0.02,0.01
7:48:04 PM,0.78,-8.68,-4.80,0.00,-0.04,0.01
7:48:04 PM,0.78,-8.64,-4.85,0.03,-0.03,0.01
7:48:04 PM,0.70,-8.65,-4.89,0.05,-0.03,0.01
7:48:04 PM,0.72,-8.66,-4.90,0.03,-0.02,0.01
7:48:04 PM,0.75,-8.63,-4.93,0.00,-0.02,0.01
7:48:05 PM,0.73,-8.66,-4.86,0.01,-0.02,0.01
7:48:05 PM,0.72,-8.68,-5.05,0.03,-0.05,0.01
7:48:05 PM,0.77,-8.63,-4.98,-0.04,0.01,0.01
7:48:05 PM,0.80,-8.63,-5.04,-0.01,0.00,0.01
7:48:05 PM,0.74,-8.64,-4.91,-0.01,-0.02,0.01
7:48:05 PM,0.83,-8.65,-4.90,0.02,-0.02,0.01
7:48:05 PM,0.77,-8.65,-4.98,0.03,-0.04,0.01
7:48:05 PM,0.82,-8.62,-4.85,0.00,-0.00,0.01
7:48:05 PM,0.77,-8.62,-4.82,0.00,-0.03,0.01
7:48:05 PM,0.78,-8.66,-4.89,-0.01,0.00,0.01
7:48:06 PM,0.76,-8.65,-4.93,0.03,-0.05,0.01
7:48:06 PM,0.80,-8.61,-5.01,-0.02,0.03,0.01
7:48:06 PM,0.76,-8.63,-4.87,0.02,-0.02,0.01
7:48:06 PM,0.76,-8.67,-4.92,-0.00,-0.00,0.01
7:48:06 PM,0.79,-8.68,-4.91,0.04,-0.03,0.01
7:48:06 PM,0.84,-8.67,-4.85,0.00,0.01,0.01
7:48:06 PM,0.79,-8.64,-4.86,0.04,-0.03,0.01
7:48:06 PM,0.78,-8.61,-4.95,-0.00,-0.00,0.01
7:48:06 PM,0.81,-8.63,-4.93,-0.01,-0.02,0.01
7:48:07 PM,0.80,-8.62,-4.83,0.01,-0.02,0.01
7:48:07 PM,0.90,-8.64,-4.79,0.00,0.02,0.01
7:48:07 PM,0.68,-8.66,-5.09,0.00,-0.04,0.01
7:48:07 PM,0.85,-8.66,-4.99,0.00,-0.00,0.01
7:48:07 PM,0.68,-8.68,-5.03,0.05,-0.08,0.01
7:48:07 PM,0.80,-8.66,-4.87,0.02,-0.00,0.01
7:48:07 PM,0.73,-8.65,-4.88,0.02,-0.03,0.01
7:48:07 PM,0.74,-8.65,-4.98,-0.02,0.02,0.01
7:48:07 PM,0.82,-8.64,-4.95,-0.01,-0.01,0.01
7:48:07 PM,0.86,-8.61,-4.85,-0.03,0.01,0.01
7:48:08 PM,0.79,-8.65,-5.05,0.03,-0.03,0.01
7:48:08 PM,0.77,-8.65,-4.91,0.05,-0.03,0.01
7:48:08 PM,0.80,-8.66,-5.03,-0.00,-0.01,0.01
7:48:08 PM,0.83,-8.63,-4.89,-0.00,-0.01,0.01
7:48:08 PM,0.79,-8.64,-5.00,0.03,-0.01,0.01
7:48:08 PM,0.85,-8.60,-4.86,0.00,0.01,0.01
7:48:08 PM,0.84,-8.64,-4.94,0.04,-0.02,0.01
7:48:08 PM,0.87,-8.61,-4.90,0.02,-0.03,0.01
7:48:08 PM,0.80,-8.64,-4.95,0.01,-0.03,0.01
7:48:09 PM,0.80,-8.64,-4.91,0.01,0.01,0.01
7:48:09 PM,0.81,-8.66,-5.04,0.02,-0.01,0.01
7:48:09 PM,0.87,-8.65,-5.00,0.01,-0.03,0.01
7:48:09 PM,0.76,-8.65,-4.94,0.02,-0.04,0.01
7:48:09 PM,0.82,-8.65,-4.92,0.02,-0.01,0.01
7:48:09 PM,0.83,-8.62,-4.84,-0.01,0.01,0.01
7:48:09 PM,0.86,-8.60,-4.95,-0.01,-0.02,0.01
7:48:09 PM,0.78,-8.61,-4.83,0.01,0.00,0.01
7:48:09 PM,0.86,-8.67,-4.94,0.01,-0.04,0.01
7:48:09 PM,0.81,-8.62,-4.93,-0.03,-0.01,0.01
7:48:10 PM,0.76,-8.63,-5.02,0.00,-0.05,0.01
7:48:10 PM,0.73,-8.66,-4.89,-0.01,-0.04,0.01
7:48:10 PM,0.84,-8.64,-4.88,-0.03,-0.01,0.01
7:48:10 PM,0.74,-8.66,-4.84,0.03,-0.03,0.01
7:48:10 PM,0.79,-8.63,-4.92,0.04,-0.00,0.01
7:48:10 PM,0.68,-8.65,-5.00,0.02,-0.02,0.01
7:48:10 PM,0.87,-8.64,-4.87,-0.05,0.05,0.01
7:48:10 PM,0.89,-8.64,-4.91,-0.01,0.01,0.01
7:48:10 PM,0.81,-8.63,-4.93,0.04,-0.02,0.01
7:48:11 PM,0.81,-8.63,-4.92,-0.01,-0.01,0.01
7:48:11 PM,0.84,-8.66,-5.01,0.03,-0.04,0.01
7:48:11 PM,0.80,-8.62,-4.89,0.05,-0.04,0.01
7:48:11 PM,0.78,-8.62,-4.95,0.02,-0.02,0.01
7:48:11 PM,0.88,-8.61,-4.88,-0.01,0.03,0.01
7:48:11 PM,0.87,-8.62,-4.98,0.04,-0.03,0.01
7:48:11 PM,0.75,-8.65,-4.96,0.01,-0.03,0.01
7:48:11 PM,0.87,-8.60,-5.00,-0.02,0.01,0.01
7:48:11 PM,0.85,-8.57,-4.90,-0.02,-0.00,0.01
7:48:12 PM,0.88,-8.62,-4.93,0.03,-0.02,0.01
7:48:12 PM,0.84,-8.55,-4.95,0.04,-0.03,0.01
7:48:12 PM,0.85,-8.60,-4.99,-0.00,0.02,0.01
7:48:12 PM,1.14,-8.59,-4.99,0.01,-0.18,0.01
7:48:12 PM,0.86,-8.61,-5.00,0.01,-0.02,0.01
7:48:12 PM,0.84,-8.59,-4.92,-0.02,-0.01,0.01
7:48:12 PM,0.81,-8.60,-5.03,-0.00,-0.04,0.01
7:48:12 PM,0.84,-8.49,-5.04,0.03,-0.05,0.01
7:48:12 PM,0.79,-8.63,-4.93,0.01,-0.02,0.01
7:48:12 PM,0.82,-8.65,-4.97,0.01,-0.02,0.01
7:48:13 PM,0.85,-8.63,-4.92,0.01,0.00,0.01
7:48:13 PM,0.79,-8.61,-4.90,0.04,-0.01,0.01
7:48:13 PM,0.84,-8.59,-4.91,0.01,0.01,0.01
7:48:13 PM,0.82,-8.59,-4.90,0.04,-0.06,0.01
7:48:13 PM,0.78,-8.63,-4.99,0.03,-0.01,0.01
7:48:13 PM,0.79,-8.64,-5.02,0.03,-0.04,0.01
7:48:13 PM,0.76,-8.60,-4.89,0.04,-0.02,0.01
7:48:13 PM,0.79,-8.64,-4.99,0.03,-0.05,0.01
7:48:13 PM,0.82,-8.66,-5.02,0.01,-0.02,0.01
7:48:14 PM,0.67,-8.65,-5.04,0.02,-0.04,0.01
7:48:14 PM,0.81,-8.65,-5.12,0.01,0.00,0.01
7:48:14 PM,0.72,-8.77,-4.79,0.03,-0.04,0.01
7:48:14 PM,0.77,-8.63,-5.06,-0.00,0.03,0.01
7:48:14 PM,0.91,-8.61,-4.92,0.00,0.02,0.01
7:48:14 PM,0.86,-8.58,-5.01,0.02,-0.00,0.01
7:48:14 PM,0.89,-8.61,-4.95,0.05,-0.01,0.01
7:48:14 PM,0.85,-8.61,-5.05,0.02,-0.03,0.01
7:48:14 PM,0.80,-8.61,-5.15,0.00,0.00,0.01
7:48:14 PM,0.85,-8.57,-5.07,-0.01,0.00,0.01
7:48:15 PM,0.86,-8.59,-5.12,-0.03,0.01,0.01
7:48:15 PM,0.93,-8.58,-5.09,-0.06,0.09,0.01
7:48:15 PM,0.99,-8.59,-5.09,-0.01,-0.00,0.01
7:48:15 PM,1.04,-8.53,-5.08,-0.03,-0.03,0.01
7:48:15 PM,1.16,-8.44,-5.18,-0.05,-0.20,0.01
7:48:15 PM,0.74,-8.43,-4.80,0.00,-0.11,0.01
7:48:15 PM,0.71,-8.53,-5.11,-0.06,0.16,0.01
7:48:15 PM,0.89,-8.56,-5.26,-0.02,0.05,0.01
7:48:15 PM,0.89,-8.54,-4.98,0.06,-0.01,0.01
7:48:16 PM,0.97,-8.51,-5.06,-0.01,0.07,0.01
7:48:16 PM,1.00,-8.51,-5.06,0.04,-0.05,0.01
7:48:16 PM,0.99,-8.42,-5.14,-0.03,0.01,0.01
7:48:16 PM,0.96,-8.53,-5.04,0.00,-0.06,0.01
7:48:16 PM,1.00,-8.52,-5.01,-0.02,0.00,0.01
7:48:16 PM,0.97,-8.49,-5.06,0.02,0.02,0.01
7:48:16 PM,0.97,-8.56,-5.08,0.02,-0.03,0.01
7:48:16 PM,0.91,-8.62,-4.99,0.00,-0.06,0.01
7:48:16 PM,0.86,-8.54,-5.08,0.01,-0.01,0.01
7:48:17 PM,0.88,-8.55,-5.15,-0.06,0.11,0.01
7:48:17 PM,0.97,-8.55,-5.19,0.06,-0.08,0.01
7:48:17 PM,0.93,-8.55,-5.19,0.03,-0.08,0.01
7:48:17 PM,0.96,-8.51,-5.04,-0.06,0.03,0.01
7:48:17 PM,0.98,-8.51,-5.16,-0.01,-0.02,0.01
7:48:17 PM,0.90,-8.57,-5.06,0.03,0.03,0.01
7:48:17 PM,1.08,-8.44,-5.06,-0.04,-0.02,0.01
7:48:17 PM,1.10,-8.50,-4.90,0.04,-0.05,0.01
7:48:17 PM,0.99,-8.55,-5.01,0.02,-0.05,0.01
7:48:17 PM,0.97,-8.53,-5.10,0.09,-0.05,0.01
7:48:18 PM,0.95,-8.58,-4.95,0.08,-0.03,0.01
7:48:18 PM,0.97,-8.57,-4.81,0.02,0.00,0.01
7:48:18 PM,0.98,-8.58,-4.91,-0.01,0.02,0.01
7:48:18 PM,0.98,-8.63,-4.97,0.01,-0.02,0.01
7:48:18 PM,0.99,-8.61,-4.84,0.02,-0.06,0.01
7:48:18 PM,0.90,-8.58,-4.89,-0.02,0.02,0.01
7:48:18 PM,0.96,-8.62,-5.01,0.04,-0.04,0.01
7:48:18 PM,0.94,-8.59,-5.01,-0.01,-0.01,0.01
7:48:18 PM,0.95,-8.60,-5.10,-0.00,-0.01,0.01
7:48:19 PM,0.99,-8.60,-4.91,0.01,-0.02,0.01
7:48:19 PM,1.00,-8.64,-4.88,0.03,-0.03,0.01
7:48:19 PM,0.94,-8.59,-4.97,0.01,-0.01,0.01
7:48:19 PM,0.97,-8.59,-4.97,-0.02,-0.00,0.01
7:48:19 PM,0.93,-8.60,-5.02,-0.01,-0.01,0.01
7:48:19 PM,0.96,-8.57,-4.94,0.00,-0.02,0.01
7:48:19 PM,0.98,-8.58,-4.97,0.00,-0.01,0.01
7:48:19 PM,0.96,-8.57,-4.93,0.00,-0.02,0.01
7:48:20 PM,0.93,-8.59,-4.91,0.03,-0.02,0.01
7:48:20 PM,0.93,-8.57,-4.92,0.01,-0.00,0.01
7:48:20 PM,0.96,-8.57,-4.97,0.01,-0.02,0.01
7:48:22 PM,0.95,-8.61,-4.94,0.02,-0.03,0.01
7:48:22 PM,1.01,-8.60,-5.00,0.01,-0.01,0.01
7:48:22 PM,0.97,-8.63,-4.99,0.01,-0.05,0.01
7:48:22 PM,0.99,-8.60,-4.91,-0.01,0.01,0.01
7:48:22 PM,0.97,-8.57,-4.85,0.02,-0.02,0.01
7:48:22 PM,0.99,-8.56,-4.88,0.01,-0.00,0.01
7:48:22 PM,0.94,-8.59,-4.93,0.02,-0.04,0.01
7:48:22 PM,1.01,-8.60,-4.92,0.03,-0.01,0.01
7:48:22 PM,0.98,-8.59,-4.91,-0.01,-0.03,0.01
7:48:22 PM,0.82,-8.69,-5.02,-0.01,-0.00,0.01
7:48:22 PM,0.97,-8.57,-4.97,-0.00,0.01,0.01
7:48:22 PM,0.97,-8.57,-4.93,-0.03,-0.07,0.01
7:48:22 PM,0.88,-8.54,-4.91,-0.02,-0.01,0.01
7:48:22 PM,0.88,-8.58,-4.98,0.04,-0.05,0.01
7:48:22 PM,0.78,-8.62,-4.87,0.05,-0.06,0.01
7:48:22 PM,0.84,-8.65,-4.92,0.01,0.01,0.01
7:48:22 PM,0.92,-8.57,-4.79,0.04,-0.06,0.01
7:48:23 PM,0.79,-8.61,-4.93,-0.00,-0.03,0.01
7:48:23 PM,0.89,-8.50,-4.98,0.01,-0.10,0.01
7:48:23 PM,0.71,-8.67,-4.89,0.05,-0.05,0.01
7:48:23 PM,0.71,-8.66,-4.99,-0.04,0.04,0.01
7:48:23 PM,0.85,-8.66,-4.87,0.04,-0.01,0.01
7:48:23 PM,0.79,-8.65,-4.89,-0.00,0.00,0.01
7:48:23 PM,0.81,-8.63,-5.07,0.04,0.00,0.01
7:48:23 PM,0.83,-8.64,-4.82,-0.03,0.02,0.01
7:48:23 PM,0.57,-8.85,-4.81,0.06,-0.10,0.01
7:48:24 PM,0.10,-8.13,-4.80,-0.05,0.00,0.01
7:48:24 PM,0.71,-8.69,-4.82,0.02,0.00,0.01
7:48:24 PM,0.79,-8.68,-4.98,0.07,-0.12,0.01
7:48:24 PM,0.73,-8.66,-4.75,0.04,0.00,0.01
7:48:24 PM,0.78,-8.68,-4.87,-0.01,-0.01,0.01
7:48:24 PM,0.73,-8.69,-4.79,0.05,-0.06,0.01
7:48:24 PM,0.84,-8.65,-4.75,-0.03,-0.00,0.01
7:48:24 PM,0.84,-8.65,-4.80,-0.01,-0.00,0.01
7:48:24 PM,0.80,-8.67,-4.86,0.03,-0.00,0.01
7:48:24 PM,0.81,-8.58,-4.79,-0.00,-0.08,0.01
7:48:25 PM,0.41,-8.68,-4.83,0.10,-0.12,0.01
7:48:25 PM,0.96,-8.66,-4.81,-0.24,0.20,0.01
7:48:25 PM,1.04,-8.49,-4.77,0.13,-0.31,0.01
7:48:25 PM,0.98,-8.59,-4.87,0.04,0.05,0.01
7:48:25 PM,1.00,-8.60,-4.98,0.01,-0.09,0.01
7:48:25 PM,0.73,-8.58,-4.82,0.01,-0.10,0.01
7:48:25 PM,0.75,-8.62,-4.92,0.04,0.05,0.01
7:48:25 PM,1.34,-8.42,-5.26,-0.10,0.03,0.01
7:48:25 PM,1.04,-8.55,-5.15,0.03,-0.08,0.01
7:48:26 PM,1.03,-8.54,-4.78,0.01,-0.02,0.01
7:48:26 PM,0.99,-8.54,-5.00,0.02,-0.03,0.01
7:48:26 PM,0.99,-8.47,-5.12,0.07,-0.11,0.01
7:48:26 PM,0.94,-8.52,-5.03,-0.03,0.02,0.01
7:48:26 PM,0.92,-8.58,-5.04,-0.04,0.02,0.01
7:48:26 PM,0.99,-8.56,-5.02,0.01,-0.00,0.01
7:48:26 PM,1.05,-8.58,-5.05,0.01,0.02,0.01
7:48:26 PM,1.06,-8.54,-5.01,0.02,0.01,0.01
7:48:26 PM,1.05,-8.52,-5.07,-0.01,-0.07,0.01
7:48:26 PM,1.11,-8.54,-5.06,-0.02,0.01,0.01
7:48:27 PM,1.09,-8.50,-4.99,-0.02,-0.01,0.01
7:48:27 PM,1.09,-8.53,-5.09,-0.00,0.05,0.01
7:48:27 PM,1.08,-8.50,-5.05,0.02,-0.01,0.01
7:48:27 PM,1.25,-8.45,-4.94,-0.02,0.01,0.01
7:48:27 PM,1.22,-8.53,-5.37,0.06,-0.13,0.01
7:48:27 PM,0.96,-8.54,-5.05,0.07,-0.07,0.01
7:48:27 PM,1.12,-8.55,-5.11,0.02,-0.01,0.01
7:48:27 PM,1.03,-8.53,-5.11,0.00,-0.13,0.01
7:48:27 PM,0.95,-8.56,-5.14,0.05,-0.05,0.01
7:48:28 PM,0.88,-8.54,-5.03,-0.01,-0.01,0.01
7:48:28 PM,1.01,-8.49,-5.00,0.00,0.09,0.01
7:48:28 PM,1.07,-8.49,-5.07,-0.03,-0.01,0.01
7:48:28 PM,1.06,-8.51,-4.99,0.05,-0.08,0.01
7:48:28 PM,1.02,-8.50,-5.18,0.00,0.02,0.01
7:48:28 PM,1.05,-8.53,-5.12,-0.04,0.02,0.01
7:48:28 PM,1.02,-8.51,-5.08,-0.02,-0.01,0.01
7:48:28 PM,1.05,-8.49,-4.98,-0.06,0.04,0.01
7:48:28 PM,1.08,-8.49,-5.15,0.03,-0.03,0.01
7:48:28 PM,1.02,-8.50,-5.14,0.02,-0.02,0.01
7:48:29 PM,0.97,-8.51,-5.22,-0.02,-0.02,0.01
7:48:29 PM,0.92,-8.57,-5.19,-0.04,0.01,0.01
7:48:29 PM,1.11,-8.50,-5.06,0.05,-0.08,0.01
7:48:29 PM,1.00,-8.51,-5.21,0.01,-0.01,0.01
7:48:29 PM,1.05,-8.50,-5.18,0.04,-0.03,0.01
7:48:29 PM,1.00,-8.49,-5.12,0.00,-0.00,0.01
7:48:29 PM,0.95,-8.48,-5.30,-0.01,0.02,0.01
7:48:29 PM,1.07,-8.50,-5.20,-0.01,0.01,0.01
7:48:29 PM,1.03,-8.39,-5.27,0.07,-0.03,0.01
7:48:30 PM,1.07,-8.48,-5.20,0.02,0.00,0.01
7:48:30 PM,1.06,-8.50,-5.26,0.06,-0.11,0.01
7:48:30 PM,0.86,-8.49,-5.15,0.01,-0.05,0.01
7:48:30 PM,0.93,-8.41,-5.34,0.03,0.03,0.01
7:48:30 PM,0.95,-8.57,-5.09,0.01,-0.01,0.01
7:48:30 PM,0.95,-8.58,-5.13,0.01,-0.03,0.01
7:48:30 PM,0.96,-8.54,-5.14,0.00,-0.01,0.01
7:48:30 PM,0.94,-8.54,-5.09,0.04,-0.05,0.01
7:48:30 PM,0.80,-8.51,-5.23,-0.00,0.00,0.01
7:48:30 PM,0.91,-8.57,-5.09,0.02,-0.07,0.01
7:48:31 PM,0.86,-8.56,-5.15,-0.02,-0.04,0.01
7:48:31 PM,0.84,-8.56,-5.30,-0.02,-0.02,0.01
7:48:31 PM,0.84,-8.52,-5.32,-0.02,-0.07,0.01
7:48:31 PM,0.72,-8.56,-5.22,0.04,-0.04,0.01
7:48:31 PM,0.79,-8.57,-5.14,0.02,-0.02,0.01
7:48:31 PM,0.64,-8.41,-5.27,-0.02,-0.01,0.01
7:48:31 PM,0.81,-8.52,-5.11,0.02,-0.05,0.01
7:48:31 PM,0.78,-8.58,-5.13,0.03,-0.03,0.01
7:48:31 PM,0.82,-8.55,-5.07,0.04,-0.01,0.01
7:48:32 PM,0.70,-8.57,-5.18,0.04,-0.07,0.01
7:48:32 PM,0.78,-8.54,-5.12,-0.03,0.08,0.01
7:48:32 PM,0.81,-8.58,-5.24,0.06,-0.07,0.01
7:48:32 PM,0.70,-8.56,-5.24,0.07,-0.10,0.01
7:48:32 PM,0.77,-8.59,-5.05,0.04,0.00,0.01
7:48:32 PM,0.63,-8.54,-5.42,-0.02,0.01,0.01
7:48:32 PM,0.72,-8.59,-5.06,-0.02,-0.01,0.01
7:48:32 PM,0.72,-8.59,-5.08,-0.06,-0.01,0.01
7:48:32 PM,0.69,-8.59,-5.26,0.00,0.01,0.01
7:48:33 PM,0.72,-8.56,-5.17,0.03,-0.05,0.01
7:48:33 PM,0.78,-8.53,-5.06,0.01,0.01,0.01
7:48:33 PM,0.78,-8.57,-5.03,0.04,-0.02,0.01
7:48:33 PM,0.71,-8.56,-5.13,0.02,0.00,0.01
7:48:33 PM,0.85,-8.57,-5.07,0.06,-0.05,0.01
7:48:33 PM,0.70,-8.57,-5.04,0.10,-0.10,0.01
7:48:33 PM,0.53,-8.63,-5.07,0.02,0.10,0.01
7:48:33 PM,0.68,-8.60,-5.11,0.01,0.01,0.01
7:48:33 PM,0.73,-8.56,-5.05,0.01,-0.00,0.01
7:48:33 PM,0.73,-8.52,-5.23,0.03,0.03,0.01
7:48:34 PM,0.73,-8.58,-5.10,0.03,-0.05,0.01
7:48:34 PM,0.63,-8.58,-5.14,0.09,-0.14,0.01
7:48:34 PM,0.71,-8.60,-5.07,0.03,0.04,0.01
7:48:34 PM,0.67,-8.61,-5.03,0.01,-0.01,0.01
7:48:34 PM,0.69,-8.62,-5.08,0.01,-0.03,0.01
7:48:34 PM,0.68,-8.63,-5.15,0.02,-0.01,0.01
7:48:34 PM,0.74,-8.56,-5.03,0.02,-0.04,0.01
7:48:34 PM,0.70,-8.59,-4.99,0.03,-0.06,0.01
7:48:34 PM,0.69,-8.60,-5.02,0.01,-0.02,0.01
7:48:35 PM,0.70,-8.56,-4.92,-0.01,-0.01,0.01
7:48:35 PM,0.70,-8.59,-5.06,-0.04,-0.00,0.01
7:48:35 PM,0.65,-8.62,-5.01,-0.02,-0.02,0.01
7:48:35 PM,0.60,-8.61,-5.21,0.03,-0.07,0.01
7:48:35 PM,0.61,-8.62,-5.02,0.02,-0.03,0.01
7:48:35 PM,0.78,-8.55,-5.08,0.01,0.01,0.01
7:48:35 PM,0.96,-8.61,-4.94,-0.01,0.01,0.01
7:48:35 PM,0.69,-8.62,-4.93,-0.00,0.03,0.01
7:48:35 PM,0.60,-8.59,-5.11,0.03,-0.07,0.01
7:48:35 PM,0.67,-8.65,-5.17,-0.02,-0.00,0.01
7:48:36 PM,0.66,-8.57,-5.05,0.04,0.00,0.01
7:48:36 PM,0.66,-8.53,-5.18,-0.01,-0.02,0.01
7:48:36 PM,0.64,-8.63,-5.04,0.07,-0.08,0.01
7:48:36 PM,0.62,-8.55,-5.09,-0.01,0.01,0.01
7:48:36 PM,0.55,-8.62,-5.23,0.02,-0.05,0.01
7:48:36 PM,0.64,-8.65,-5.13,-0.00,-0.01,0.01
7:48:36 PM,0.61,-8.61,-5.04,0.03,-0.04,0.01
7:48:36 PM,0.65,-8.62,-5.04,0.05,-0.02,0.01
7:48:36 PM,0.70,-8.60,-5.03,0.02,-0.02,0.01
7:48:37 PM,0.63,-8.61,-5.16,-0.01,0.01,0.01
7:48:37 PM,0.65,-8.57,-5.07,0.01,-0.03,0.01
7:48:37 PM,0.70,-8.59,-5.01,-0.02,0.03,0.01
7:48:37 PM,0.67,-8.58,-4.98,0.03,-0.05,0.01
7:48:37 PM,0.67,-8.58,-4.99,-0.00,0.02,0.01
7:48:37 PM,0.66,-8.60,-5.03,0.01,-0.04,0.01
7:48:37 PM,0.65,-8.60,-5.06,-0.00,-0.00,0.01
7:48:37 PM,0.69,-8.59,-5.03,0.02,-0.02,0.01
7:48:37 PM,0.70,-8.60,-5.08,-0.02,-0.00,0.01
7:48:37 PM,0.70,-8.64,-5.06,0.08,-0.05,0.01
7:48:38 PM,0.68,-8.61,-4.99,-0.01,0.03,0.01
7:48:38 PM,0.71,-8.64,-4.92,0.05,-0.04,0.01
7:48:38 PM,0.70,-8.60,-4.94,-0.01,-0.00,0.01
7:48:38 PM,0.69,-8.62,-5.06,0.09,-0.08,0.01
7:48:38 PM,0.85,-8.66,-5.03,0.03,-0.02,0.01
7:48:38 PM,0.69,-8.58,-4.94,0.02,-0.02,0.01
7:48:38 PM,0.65,-8.57,-4.98,0.01,0.00,0.01
7:48:38 PM,0.68,-8.62,-5.15,0.04,-0.03,0.01
7:48:38 PM,0.66,-8.64,-5.03,0.01,-0.03,0.01
7:48:39 PM,0.65,-8.66,-4.90,0.03,-0.04,0.01
7:48:39 PM,0.68,-8.63,-4.98,0.00,-0.01,0.01
7:48:39 PM,0.62,-8.63,-5.03,0.03,-0.03,0.01
7:48:39 PM,0.62,-8.66,-5.02,0.01,-0.01,0.01
7:48:39 PM,0.63,-8.65,-5.04,0.04,-0.03,0.01
7:48:39 PM,0.59,-8.63,-5.06,0.01,-0.04,0.01
7:48:39 PM,0.72,-8.54,-5.16,-0.03,0.02,0.01
7:48:39 PM,0.59,-8.65,-5.14,-0.01,-0.05,0.01
7:48:39 PM,0.64,-8.67,-4.97,0.05,-0.05,0.01
7:48:39 PM,0.66,-8.60,-4.97,-0.04,0.01,0.01
7:48:40 PM,0.65,-8.62,-5.02,0.03,-0.04,0.01
7:48:40 PM,0.64,-8.60,-4.97,0.00,-0.04,0.01
7:48:40 PM,0.63,-8.69,-5.01,0.03,-0.04,0.01
7:48:40 PM,0.64,-8.63,-4.93,0.01,-0.04,0.01
7:48:40 PM,0.60,-8.62,-5.09,-0.01,0.02,0.01
7:48:40 PM,0.65,-8.64,-5.06,0.02,-0.02,0.01
7:48:40 PM,0.65,-8.62,-5.04,-0.02,0.04,0.01
7:48:40 PM,0.70,-8.62,-5.05,0.00,-0.02,0.01
7:48:40 PM,0.62,-8.62,-4.97,0.03,-0.08,0.01
7:48:41 PM,0.69,-8.63,-5.03,0.01,-0.01,0.01
7:48:41 PM,0.67,-8.62,-5.02,0.01,0.01,0.01
7:48:41 PM,0.66,-8.63,-5.06,0.01,-0.02,0.01
7:48:41 PM,0.64,-8.63,-5.15,-0.02,0.00,0.01
7:48:41 PM,0.73,-8.59,-4.98,-0.01,-0.02,0.01
7:48:41 PM,0.61,-8.60,-5.10,0.00,0.01,0.01
7:48:41 PM,0.73,-8.60,-5.05,0.01,-0.03,0.01
7:48:41 PM,0.71,-8.61,-4.98,0.01,-0.01,0.01
7:48:41 PM,0.79,-8.61,-4.97,-0.02,0.02,0.01
7:48:41 PM,0.72,-8.59,-4.98,0.01,-0.02,0.01
7:48:42 PM,0.68,-8.62,-5.06,0.03,-0.03,0.01
7:48:42 PM,0.62,-8.61,-5.13,0.03,-0.04,0.01
7:48:42 PM,0.73,-8.62,-5.05,0.01,-0.01,0.01
7:48:42 PM,0.68,-8.62,-5.07,0.05,-0.05,0.01
7:48:42 PM,0.71,-8.60,-5.04,-0.01,-0.00,0.01
7:48:42 PM,0.70,-8.60,-5.02,0.01,-0.04,0.01
7:48:42 PM,0.74,-8.62,-4.92,0.02,-0.02,0.01
7:48:42 PM,0.68,-8.61,-5.10,0.01,-0.01,0.01
7:48:42 PM,0.64,-8.62,-5.15,0.02,-0.01,0.01
7:48:43 PM,0.70,-8.62,-5.01,0.03,-0.07,0.01
