Timestamp,Accel X,Accel Y,Accel Z,Gyro X,Gyro Y,Gyro Z
8:17:09 PM,9.25,-0.77,-0.72,-0.03,-0.07,0.01
8:17:09 PM,9.16,-0.72,-0.80,-0.05,-0.10,0.01
8:17:10 PM,8.86,-0.68,-1.00,0.00,-0.14,0.01
8:17:10 PM,9.01,-0.91,-0.83,0.13,-0.26,0.01
8:17:10 PM,8.84,-1.07,-1.05,0.05,-0.16,0.01
8:17:10 PM,9.15,-1.10,-1.55,-0.18,-0.21,0.01
8:17:10 PM,9.11,-1.07,-1.82,-0.01,-0.07,0.01
8:17:10 PM,8.68,-1.14,-1.84,-0.02,0.03,0.01
8:17:10 PM,9.67,-1.00,-1.38,0.15,0.19,0.01
8:17:10 PM,8.69,-0.90,-1.62,-0.11,-0.10,0.01
8:17:10 PM,9.14,-1.81,-1.20,-0.14,-0.14,0.01
8:17:10 PM,9.81,-1.02,-1.02,0.15,0.04,0.01
8:17:11 PM,9.29,-0.98,-1.04,0.02,0.07,0.01
8:17:11 PM,9.42,-0.85,-0.96,0.08,-0.32,0.01
8:17:11 PM,8.97,-0.64,-1.31,-0.11,-0.19,0.01
8:17:11 PM,8.59,-0.62,-1.32,-0.10,-0.06,0.01
8:17:11 PM,9.17,-0.77,-1.24,-0.14,-0.05,0.01
8:17:11 PM,9.07,-0.73,-1.22,-0.07,-0.07,0.01
8:17:11 PM,8.39,-0.53,-1.27,-0.09,-0.15,0.01
8:17:11 PM,9.22,-0.81,-0.93,-0.06,-0.03,0.01
8:17:11 PM,9.17,-0.69,-1.12,-0.12,-0.09,0.01
8:17:12 PM,9.29,-0.95,-0.82,-0.01,-0.10,0.01
8:17:12 PM,8.88,-0.80,-0.79,0.02,-0.05,0.01
8:17:12 PM,9.20,-0.74,-0.81,-0.01,0.00,0.01
8:17:12 PM,9.07,-0.67,-1.12,0.01,0.03,0.01
8:17:12 PM,9.09,-0.64,-1.24,-0.03,0.01,0.01
8:17:12 PM,9.10,-0.66,-1.34,0.02,-0.07,0.01
8:17:12 PM,9.23,-0.76,-0.81,0.01,-0.11,0.01
8:17:12 PM,9.62,-0.73,-0.91,-0.04,-0.09,0.01
8:17:12 PM,9.19,-0.73,-1.00,-0.00,0.06,0.01
8:17:12 PM,9.48,-0.82,-0.45,0.01,-0.12,0.01
8:17:13 PM,9.35,-0.77,-0.80,0.03,0.04,0.01
8:17:13 PM,9.35,-0.72,-0.99,0.06,0.02,0.01
8:17:13 PM,8.98,-0.79,-0.85,0.04,-0.02,0.01
8:17:13 PM,9.24,-0.70,-0.87,0.15,0.09,0.01
8:17:13 PM,8.67,-0.50,-1.07,-0.05,-0.16,0.01
8:17:13 PM,9.05,-0.61,-0.88,-0.00,-0.13,0.01
8:17:13 PM,9.21,-0.67,-1.18,-0.04,0.02,0.01
8:17:13 PM,9.11,-0.68,-1.06,-0.04,-0.06,0.01
8:17:13 PM,9.36,-0.76,-0.93,-0.09,-0.06,0.01
8:17:14 PM,9.07,-0.79,-0.89,-0.02,0.02,0.01
8:17:14 PM,9.19,-0.73,-0.89,-0.06,-0.07,0.01
8:17:14 PM,8.98,-0.63,-1.02,-0.04,0.01,0.01
8:17:14 PM,8.83,-0.46,-1.39,-0.04,-0.23,0.01
8:17:14 PM,9.07,-0.61,-1.12,-0.03,-0.13,0.01
8:17:14 PM,9.17,-0.70,-1.30,-0.12,-0.15,0.01
8:17:14 PM,8.79,-0.71,-1.22,-0.06,0.01,0.01
8:17:14 PM,9.33,-0.73,-1.09,-0.02,-0.03,0.01
8:17:14 PM,8.85,-0.69,-1.17,-0.07,-0.06,0.01
8:17:14 PM,9.33,-0.68,-1.11,-0.09,-0.06,0.01
8:17:15 PM,9.39,-0.72,-1.04,-0.03,-0.08,0.01
8:17:15 PM,9.26,-0.74,-1.06,0.00,-0.03,0.01
8:17:15 PM,9.35,-0.78,-1.01,0.00,-0.05,0.01
8:17:15 PM,9.18,-0.78,-0.99,-0.01,0.02,0.01
8:17:15 PM,9.37,-0.77,-0.84,-0.01,-0.03,0.01
8:17:15 PM,9.16,-0.68,-1.07,0.04,0.03,0.01
8:17:15 PM,9.18,-0.68,-1.04,0.07,0.03,0.01
8:17:15 PM,9.16,-0.79,-1.02,0.05,0.03,0.01
8:17:15 PM,9.43,-0.71,-0.96,0.02,0.01,0.01
8:17:16 PM,9.10,-0.64,-1.16,-0.00,-0.07,0.01
8:17:16 PM,9.07,-0.59,-1.20,0.04,-0.04,0.01
8:17:16 PM,8.98,-0.81,-0.99,0.03,0.04,0.01
8:17:16 PM,8.86,-0.65,-1.09,-0.06,0.00,0.01
8:17:16 PM,8.93,-0.59,-1.35,-0.03,-0.07,0.01
8:17:16 PM,9.07,-0.63,-1.19,0.00,-0.07,0.01
8:17:16 PM,8.80,-0.69,-1.14,0.06,0.01,0.01
8:17:16 PM,9.33,-0.73,-1.05,0.02,0.03,0.01
8:17:16 PM,8.83,-0.65,-1.23,0.01,0.03,0.01
8:17:16 PM,9.28,-0.75,-0.98,0.06,-0.01,0.01
8:17:17 PM,9.02,-0.71,-1.08,0.01,-0.01,0.01
8:17:17 PM,9.29,-0.82,-1.02,0.02,0.01,0.01
8:17:17 PM,8.92,-0.70,-1.15,-0.01,-0.02,0.01
8:17:17 PM,9.02,-0.72,-1.06,-0.02,0.00,0.01
8:17:17 PM,9.18,-0.72,-1.04,-0.04,-0.02,0.01
8:17:17 PM,9.17,-0.74,-0.90,0.03,-0.04,0.01
8:17:17 PM,9.14,-0.74,-0.99,-0.08,-0.01,0.01
8:17:17 PM,9.16,-0.74,-1.05,-0.06,-0.05,0.01
8:17:17 PM,9.22,-0.75,-1.00,0.02,0.02,0.01
8:17:18 PM,9.32,-0.85,-0.80,-0.02,-0.06,0.01
8:17:18 PM,9.27,-0.78,-0.97,0.01,-0.01,0.01
8:17:18 PM,9.30,-0.78,-0.93,0.02,-0.07,0.01
8:17:18 PM,9.16,-0.72,-1.02,0.04,0.03,0.01
8:17:18 PM,9.45,-0.74,-1.02,-0.02,-0.03,0.01
8:17:18 PM,8.83,-0.70,-1.16,0.00,-0.01,0.01
8:17:18 PM,9.11,-0.72,-1.02,-0.05,0.01,0.01
8:17:18 PM,9.10,-0.72,-1.13,-0.03,-0.10,0.01
8:17:18 PM,9.22,-0.75,-0.99,-0.00,0.01,0.01
8:17:19 PM,9.10,-0.67,-1.07,-0.04,-0.01,0.01
8:17:19 PM,9.22,-0.74,-1.03,-0.01,-0.08,0.01
8:17:19 PM,9.17,-0.85,-0.93,-0.03,-0.03,0.01
8:17:19 PM,9.11,-0.70,-1.06,0.02,-0.03,0.01
8:17:19 PM,8.94,-0.66,-1.18,0.04,-0.02,0.01
8:17:19 PM,9.06,-0.67,-1.16,-0.05,0.00,0.01
8:17:19 PM,8.96,-0.67,-1.35,0.06,0.04,0.01
8:17:19 PM,9.23,-0.62,-1.07,-0.01,-0.09,0.01
8:17:19 PM,8.72,-0.58,-1.16,0.04,0.04,0.01
8:17:19 PM,8.85,-0.56,-1.33,-0.03,0.02,0.01
8:17:20 PM,9.00,-0.58,-1.33,-0.03,-0.09,0.01
8:17:20 PM,9.23,-0.69,-1.04,0.01,-0.07,0.01
8:17:20 PM,9.35,-0.65,-1.02,0.02,-0.08,0.01
8:17:20 PM,8.81,-0.54,-1.34,-0.02,0.01,0.01
8:17:20 PM,8.97,-0.62,-0.98,-0.01,-0.08,0.01
8:17:20 PM,8.94,-0.63,-1.05,-0.02,0.04,0.01
8:17:20 PM,9.33,-0.80,-0.81,0.13,0.01,0.01
8:17:20 PM,9.38,-0.81,-0.68,0.05,0.01,0.01
8:17:20 PM,9.44,-0.73,-0.99,0.07,-0.00,0.01
8:17:21 PM,9.22,-0.83,-1.03,0.08,-0.05,0.01
8:17:21 PM,9.06,-0.62,-1.20,0.02,0.02,0.01
8:17:21 PM,9.02,-0.66,-1.15,-0.02,-0.06,0.01
8:17:21 PM,9.38,-0.72,-0.93,-0.00,-0.01,0.01
8:17:21 PM,9.07,-0.83,-0.89,-0.01,-0.10,0.01
8:17:21 PM,9.32,-0.70,-1.02,-0.05,-0.05,0.01
8:17:21 PM,9.31,-0.88,-0.71,0.05,-0.01,0.01
8:17:21 PM,9.17,-0.79,-0.93,0.09,-0.05,0.01
8:17:21 PM,8.89,-0.65,-1.16,0.03,0.02,0.01
8:17:21 PM,9.27,-0.64,-1.16,0.04,-0.01,0.01
8:17:22 PM,9.00,-0.70,-1.03,0.04,-0.02,0.01
8:17:22 PM,9.16,-0.75,-1.06,0.02,0.06,0.01
8:17:22 PM,9.30,-0.61,-1.35,-0.09,-0.07,0.01
8:17:22 PM,9.30,-0.62,-1.33,-0.00,-0.02,0.01
8:17:22 PM,9.75,-0.92,-0.69,0.21,-0.06,0.01
8:17:22 PM,9.19,-0.61,-0.99,-0.14,-0.00,0.01
8:17:22 PM,9.22,-0.59,-1.34,-0.02,-0.09,0.01
8:17:22 PM,9.21,-0.70,-0.99,0.04,-0.05,0.01
8:17:22 PM,9.13,-0.70,-1.17,-0.00,0.02,0.01
8:17:23 PM,8.86,-0.58,-1.37,0.01,0.02,0.01
8:17:23 PM,9.00,-0.62,-1.35,-0.06,-0.03,0.01
8:17:23 PM,8.82,-0.67,-1.13,-0.01,-0.02,0.01
8:17:23 PM,9.04,-0.60,-1.22,0.04,-0.10,0.01
8:17:23 PM,9.01,-0.67,-1.04,0.02,0.00,0.01
8:17:23 PM,9.08,-0.82,-1.00,-0.00,-0.08,0.01
8:17:23 PM,9.43,-0.86,-0.82,0.07,-0.03,0.01
8:17:23 PM,9.29,-0.76,-1.00,0.06,-0.03,0.01
8:17:23 PM,9.37,-0.83,-0.90,-0.05,-0.08,0.01
8:17:23 PM,8.99,-0.71,-1.16,-0.07,-0.05,0.01
8:17:24 PM,8.77,-0.68,-1.27,0.02,0.07,0.01
8:17:24 PM,8.98,-0.64,-1.30,-0.05,0.00,0.01
8:17:24 PM,8.80,-0.58,-1.43,0.02,0.01,0.01
8:17:24 PM,9.17,-0.78,-0.93,-0.06,-0.07,0.01
8:17:24 PM,9.33,-0.76,-1.21,-0.11,-0.06,0.01
8:17:24 PM,9.16,-0.78,-1.07,-0.04,-0.05,0.01
8:17:24 PM,9.25,-0.80,-1.00,0.01,0.02,0.01
8:17:24 PM,8.98,-0.68,-1.21,0.03,-0.02,0.01
8:17:24 PM,8.93,-0.68,-1.11,0.05,-0.03,0.01
8:17:25 PM,8.97,-0.70,-1.06,0.01,-0.01,0.01
8:17:25 PM,8.69,-0.66,-1.26,-0.02,-0.01,0.01
8:17:25 PM,8.78,-0.79,-0.95,-0.04,-0.04,0.01
8:17:25 PM,8.94,-0.69,-1.20,-0.01,0.04,0.01
8:17:25 PM,8.86,-0.72,-1.16,0.03,-0.06,0.01
8:17:25 PM,8.90,-0.74,-1.10,0.08,-0.02,0.01
8:17:25 PM,9.33,-0.79,-1.12,-0.03,0.01,0.01
8:17:25 PM,9.16,-0.78,-1.01,-0.01,-0.08,0.01
8:17:25 PM,9.07,-0.82,-1.08,-0.04,-0.05,0.01
8:17:25 PM,9.21,-0.83,-1.02,0.03,-0.03,0.01
8:17:26 PM,9.40,-0.80,-0.98,-0.01,-0.02,0.01
8:17:26 PM,9.01,-0.77,-1.24,-0.02,-0.00,0.01
8:17:26 PM,9.22,-0.80,-1.07,-0.03,-0.05,0.01
8:17:26 PM,9.35,-0.93,-0.90,-0.04,-0.05,0.01
8:17:26 PM,9.17,-0.85,-1.02,-0.01,0.03,0.01
8:17:26 PM,9.24,-0.80,-0.94,0.04,-0.02,0.01
8:17:26 PM,9.22,-0.84,-1.11,-0.07,0.05,0.01
8:17:26 PM,8.34,-0.39,-1.89,-0.03,0.04,0.01
8:17:26 PM,9.13,-0.76,-1.06,-0.01,-0.09,0.01
8:17:27 PM,9.06,-0.75,-1.49,0.11,-0.01,0.01
8:17:27 PM,9.24,-0.71,-1.08,-0.08,-0.04,0.01
8:17:27 PM,9.13,-0.75,-0.99,-0.01,-0.10,0.01
8:17:27 PM,9.05,-0.74,-1.13,-0.07,-0.02,0.01
8:17:27 PM,9.37,-0.82,-1.00,-0.02,-0.07,0.01
8:17:27 PM,9.26,-0.79,-1.08,-0.03,-0.02,0.01
8:17:27 PM,8.99,-0.89,-1.03,0.01,0.02,0.01
8:17:27 PM,9.01,-0.86,-1.02,-0.01,0.01,0.01
8:17:27 PM,9.06,-0.83,-1.13,-0.01,0.05,0.01
8:17:27 PM,9.22,-0.88,-1.14,0.01,-0.01,0.01
8:17:28 PM,9.34,-0.84,-0.99,0.07,-0.03,0.01
8:17:28 PM,8.98,-0.79,-1.26,0.07,-0.02,0.01
8:17:28 PM,9.16,-0.87,-0.91,0.02,-0.06,0.01
8:17:28 PM,9.11,-0.84,-1.03,0.04,0.02,0.01
8:17:28 PM,9.14,-0.83,-1.03,-0.01,-0.00,0.01
8:17:28 PM,9.10,-0.88,-1.02,0.02,-0.03,0.01
8:17:28 PM,9.33,-0.91,-0.96,-0.01,-0.08,0.01
8:17:28 PM,9.08,-0.86,-1.07,-0.03,-0.04,0.01
8:17:28 PM,8.98,-0.82,-1.12,-0.05,-0.04,0.01
8:17:29 PM,8.78,-0.73,-1.33,-0.01,0.00,0.01
8:17:29 PM,9.06,-0.73,-1.33,-0.02,-0.01,0.01
8:17:29 PM,8.97,-0.81,-0.91,0.02,-0.02,0.01
8:17:29 PM,9.02,-0.79,-1.15,0.02,0.01,0.01
8:17:29 PM,9.00,-0.80,-1.18,0.01,-0.00,0.01
8:17:29 PM,9.04,-0.86,-0.91,0.02,-0.02,0.01
8:17:29 PM,9.26,-0.85,-1.02,0.02,-0.00,0.01
8:17:29 PM,9.08,-0.85,-1.02,0.02,0.02,0.01
8:17:29 PM,9.23,-0.81,-1.12,0.03,0.01,0.01
8:17:29 PM,9.18,-0.83,-1.16,-0.02,0.05,0.01
8:17:30 PM,9.17,-0.87,-0.95,0.03,-0.02,0.01
8:17:30 PM,9.37,-1.00,-0.83,0.05,-0.04,0.01
8:17:30 PM,9.30,-0.91,-0.89,0.08,-0.02,0.01
8:17:30 PM,9.10,-0.83,-1.14,0.07,0.08,0.01
8:17:30 PM,9.13,-0.90,-1.08,0.07,0.01,0.01
8:17:30 PM,9.15,-0.90,-1.05,0.07,0.01,0.01
8:17:30 PM,9.05,-0.78,-1.28,-0.01,0.01,0.01
8:17:30 PM,9.16,-0.76,-1.23,0.00,-0.00,0.01
8:17:30 PM,9.11,-0.85,-1.18,-0.01,-0.02,0.01
8:17:31 PM,8.94,-0.78,-1.22,-0.01,-0.00,0.01
8:17:31 PM,9.10,-0.79,-1.31,0.06,0.11,0.01
8:17:31 PM,9.49,-0.94,-0.91,0.00,-0.14,0.01
8:17:31 PM,8.66,-0.72,-1.23,-0.01,0.04,0.01
8:17:31 PM,9.06,-0.73,-1.40,-0.03,-0.03,0.01
8:17:31 PM,9.11,-0.86,-1.10,-0.03,-0.11,0.01
8:17:31 PM,8.98,-0.79,-1.08,0.01,-0.01,0.01
8:17:31 PM,8.94,-0.73,-1.24,-0.03,-0.08,0.01
8:17:31 PM,9.05,-0.81,-1.09,-0.03,-0.05,0.01
8:17:32 PM,9.29,-0.87,-0.95,-0.00,-0.02,0.01
8:17:32 PM,9.13,-0.83,-1.13,-0.03,-0.03,0.01
8:17:32 PM,9.05,-0.75,-1.19,-0.00,-0.07,0.01
8:17:32 PM,8.96,-0.88,-1.14,-0.06,-0.05,0.01
8:17:32 PM,9.18,-0.87,-1.09,-0.04,-0.02,0.01
8:17:32 PM,9.14,-0.88,-1.10,-0.05,-0.02,0.01
8:17:32 PM,9.11,-0.89,-1.15,-0.01,-0.04,0.01
8:17:32 PM,9.11,-0.91,-1.10,0.03,-0.04,0.01
8:17:32 PM,9.11,-0.81,-1.33,0.01,-0.00,0.01
8:17:32 PM,8.75,-0.80,-1.39,0.04,-0.04,0.01
8:17:33 PM,9.01,-0.81,-1.36,0.04,-0.03,0.01
8:17:33 PM,9.26,-0.83,-1.13,0.03,-0.00,0.01
8:17:33 PM,9.22,-0.81,-1.22,0.00,-0.04,0.01
8:17:33 PM,9.07,-0.82,-1.23,-0.02,0.03,0.01
8:17:33 PM,9.19,-0.79,-1.34,0.01,0.03,0.01
8:17:33 PM,9.36,-0.91,-1.06,0.00,-0.06,0.01
8:17:33 PM,8.91,-0.84,-1.04,0.02,-0.08,0.01
8:17:33 PM,9.00,-0.83,-1.26,-0.01,-0.02,0.01
8:17:33 PM,9.07,-0.92,-1.02,-0.00,-0.03,0.01
8:17:34 PM,9.23,-0.92,-1.04,0.06,0.01,0.01
8:17:34 PM,9.09,-0.89,-0.99,0.07,-0.03,0.01
8:17:34 PM,9.05,-0.84,-1.21,-0.01,-0.07,0.01
8:17:34 PM,8.92,-0.71,-1.44,0.01,-0.02,0.01
8:17:34 PM,9.21,-0.84,-1.27,0.03,0.01,0.01
8:17:34 PM,9.03,-0.84,-1.27,-0.03,-0.00,0.01
8:17:34 PM,9.30,-0.91,-1.09,0.02,-0.01,0.01
8:17:34 PM,9.25,-0.95,-1.06,0.04,-0.08,0.01
8:17:34 PM,8.82,-0.91,-1.15,-0.01,-0.04,0.01
8:17:34 PM,8.82,-0.78,-1.33,0.02,0.03,0.01
8:17:35 PM,9.07,-0.89,-1.13,0.03,-0.08,0.01
8:17:35 PM,9.96,-0.91,-1.10,0.11,0.12,0.01
8:17:35 PM,8.87,-0.84,-1.38,-0.02,-0.03,0.01
8:17:35 PM,9.04,-0.96,-1.13,0.02,-0.07,0.01
8:17:35 PM,8.95,-0.77,-1.28,0.16,0.05,0.01
8:17:35 PM,9.22,-0.74,-1.34,-0.07,0.03,0.01
8:17:35 PM,9.07,-0.83,-1.23,0.02,0.01,0.01
8:17:35 PM,9.28,-0.82,-1.18,0.03,-0.01,0.01
8:17:35 PM,9.25,-0.85,-1.21,0.05,0.02,0.01
8:17:36 PM,9.14,-0.77,-1.20,0.06,-0.01,0.01
8:17:36 PM,8.87,-0.83,-1.07,0.07,-0.02,0.01
8:17:36 PM,9.16,-0.81,-1.19,0.02,-0.01,0.01
8:17:36 PM,9.03,-0.82,-1.34,-0.01,-0.06,0.01
8:17:36 PM,8.97,-0.83,-1.25,0.00,-0.04,0.01
8:17:36 PM,8.91,-0.78,-1.34,-0.02,-0.01,0.01
8:17:36 PM,9.31,-0.86,-1.13,-0.01,-0.02,0.01
8:17:36 PM,9.07,-0.82,-1.19,-0.03,-0.03,0.01
8:17:36 PM,9.02,-0.76,-1.35,0.01,-0.02,0.01
8:17:36 PM,9.16,-0.79,-1.38,-0.01,-0.04,0.01
8:17:37 PM,9.03,-0.83,-1.18,-0.03,-0.03,0.01
8:17:37 PM,9.23,-0.81,-1.34,0.00,-0.07,0.01
8:17:37 PM,9.22,-0.93,-1.12,-0.01,-0.06,0.01
8:17:37 PM,9.03,-0.86,-1.23,-0.02,0.01,0.01
8:17:37 PM,9.38,-0.99,-1.17,0.04,-0.03,0.01
8:17:37 PM,9.06,-0.91,-1.14,-0.00,-0.07,0.01
8:17:37 PM,9.21,-0.90,-1.18,0.00,-0.01,0.01
8:17:37 PM,9.22,-1.03,-1.14,-0.00,-0.08,0.01
8:17:37 PM,9.18,-0.91,-1.20,-0.03,0.03,0.01
8:17:38 PM,9.11,-0.89,-1.29,-0.00,0.02,0.01
8:17:38 PM,9.35,-0.93,-1.24,0.04,0.02,0.01
8:17:38 PM,9.09,-0.90,-1.23,0.02,-0.05,0.01
8:17:38 PM,8.88,-0.83,-1.34,0.02,0.02,0.01
8:17:38 PM,9.03,-0.82,-1.41,-0.02,-0.01,0.01
8:17:38 PM,9.00,-0.81,-1.35,0.03,-0.03,0.01
8:17:38 PM,9.10,-0.86,-1.34,-0.03,-0.01,0.01
8:17:38 PM,9.13,-0.90,-1.37,-0.00,-0.03,0.01
8:17:38 PM,9.20,-0.88,-1.26,-0.02,-0.02,0.01
8:17:38 PM,9.27,-0.92,-1.09,0.03,-0.05,0.01
8:17:39 PM,9.00,-0.84,-1.34,0.01,-0.03,0.01
8:17:39 PM,9.05,-0.89,-1.25,0.06,-0.02,0.01
8:17:39 PM,9.06,-0.76,-1.52,0.02,0.05,0.01
8:17:39 PM,9.21,-0.86,-1.36,0.03,0.04,0.01
8:17:39 PM,9.28,-0.99,-1.09,-0.00,-0.01,0.01
8:17:39 PM,9.14,-0.97,-1.11,0.01,-0.03,0.01
8:17:39 PM,9.32,-0.94,-1.19,0.00,0.00,0.01
8:17:39 PM,9.46,-1.02,-0.91,0.08,-0.04,0.01
8:17:39 PM,8.99,-0.87,-1.19,-0.01,-0.02,0.01
8:17:40 PM,8.93,-0.75,-1.43,0.03,-0.02,0.01
8:17:40 PM,9.04,-0.88,-1.40,-0.02,-0.03,0.01
8:17:40 PM,8.94,-0.69,-1.48,-0.00,-0.06,0.01
8:17:40 PM,9.08,-0.83,-1.37,-0.01,-0.05,0.01
8:17:40 PM,9.18,-0.86,-1.35,0.02,-0.05,0.01
8:17:40 PM,9.07,-0.85,-1.25,-0.01,-0.04,0.01
8:17:40 PM,8.95,-0.82,-1.40,-0.03,-0.04,0.01
8:17:40 PM,9.16,-0.94,-1.05,-0.02,-0.04,0.01
8:17:40 PM,8.99,-0.84,-1.24,0.02,0.02,0.01
8:17:40 PM,9.15,-0.83,-1.28,-0.01,-0.02,0.01
8:17:41 PM,9.23,-0.89,-1.23,0.03,-0.01,0.01
8:17:41 PM,9.11,-0.89,-1.19,0.03,-0.00,0.01
8:17:41 PM,9.14,-0.86,-1.28,0.07,-0.03,0.01
8:17:41 PM,9.12,-0.84,-1.23,0.02,-0.00,0.01
8:17:41 PM,8.97,-0.83,-1.44,0.00,-0.02,0.01
8:17:41 PM,9.11,-0.89,-1.16,-0.01,-0.05,0.01
8:17:41 PM,8.77,-0.80,-1.39,-0.01,0.00,0.01
8:17:41 PM,9.06,-0.81,-1.33,-0.00,0.01,0.01
8:17:41 PM,9.15,-0.87,-1.28,0.00,-0.01,0.01
8:17:42 PM,8.91,-0.76,-1.41,0.01,-0.01,0.01
8:17:42 PM,9.20,-0.89,-1.12,0.08,-0.03,0.01
8:17:42 PM,9.05,-0.90,-1.19,0.09,0.02,0.01
8:17:42 PM,9.02,-0.81,-1.22,0.04,0.01,0.01
8:17:42 PM,9.08,-0.79,-1.21,0.07,0.03,0.01
8:17:42 PM,9.12,-0.90,-1.15,0.04,-0.02,0.01
8:17:42 PM,9.18,-0.83,-1.15,0.04,0.02,0.01
8:17:42 PM,9.21,-0.85,-1.24,-0.06,-0.05,0.01
8:17:42 PM,8.94,-0.69,-1.54,0.03,-0.02,0.01
8:17:42 PM,9.19,-0.84,-1.10,-0.01,-0.00,0.01
8:17:43 PM,9.46,-0.80,-1.23,0.00,-0.02,0.01
8:17:43 PM,9.12,-0.86,-1.09,0.00,-0.05,0.01
8:17:43 PM,9.08,-0.79,-1.21,0.01,0.02,0.01
8:17:43 PM,9.11,-0.81,-1.25,-0.00,0.02,0.01
8:17:43 PM,8.95,-0.76,-1.33,-0.06,-0.04,0.01
8:17:43 PM,9.09,-0.86,-1.10,-0.06,-0.07,0.01
8:17:43 PM,9.10,-0.81,-1.27,-0.00,-0.01,0.01
8:17:43 PM,9.06,-0.72,-1.28,0.02,0.04,0.01
8:17:43 PM,9.14,-0.69,-1.43,-0.00,-0.01,0.01
8:17:44 PM,9.01,-0.75,-1.25,-0.01,0.04,0.01
8:17:44 PM,9.22,-0.81,-1.24,-0.05,-0.06,0.01
8:17:44 PM,9.15,-0.79,-1.24,0.01,0.03,0.01
8:17:44 PM,9.40,-0.83,-1.14,0.01,-0.03,0.01
8:17:44 PM,9.19,-0.75,-1.24,0.02,-0.04,0.01
8:17:44 PM,9.14,-0.70,-1.40,-0.01,0.02,0.01
8:17:44 PM,9.25,-0.81,-1.13,0.03,-0.04,0.01
8:17:44 PM,9.17,-0.81,-1.18,-0.02,-0.00,0.01
8:17:44 PM,9.20,-0.77,-1.16,0.01,-0.04,0.01
8:17:45 PM,9.12,-0.82,-1.10,0.03,-0.02,0.01
8:17:45 PM,9.07,-0.68,-1.42,0.02,-0.00,0.01
8:17:45 PM,9.31,-0.88,-1.03,-0.01,-0.02,0.01
8:17:45 PM,9.07,-0.81,-1.29,-0.03,-0.01,0.01
8:17:45 PM,9.05,-0.80,-1.24,0.06,0.02,0.01
8:17:45 PM,9.20,-0.84,-1.18,0.01,-0.00,0.01
8:17:45 PM,9.11,-0.66,-1.47,0.05,-0.03,0.01
8:17:45 PM,9.10,-0.70,-1.41,-0.02,-0.05,0.01
8:17:45 PM,9.09,-0.77,-1.35,-0.04,-0.05,0.01
8:17:45 PM,9.34,-0.78,-1.22,0.04,0.02,0.01
8:17:46 PM,9.18,-0.81,-1.17,0.00,-0.00,0.01
8:17:46 PM,8.92,-0.76,-1.28,-0.02,-0.02,0.01
8:17:46 PM,9.14,-0.84,-1.27,-0.02,0.01,0.01
8:17:46 PM,9.27,-0.82,-1.25,0.02,-0.04,0.01
8:17:46 PM,9.11,-0.75,-1.24,-0.00,-0.04,0.01
8:17:46 PM,9.18,-0.79,-1.10,0.01,-0.01,0.01
8:17:46 PM,9.16,-0.79,-1.09,0.02,-0.09,0.01
8:17:46 PM,9.24,-0.82,-1.13,0.02,0.03,0.01
8:17:46 PM,9.10,-0.74,-1.19,-0.01,-0.04,0.01
8:17:47 PM,8.91,-0.77,-1.15,0.00,0.02,0.01
8:17:47 PM,9.23,-0.75,-1.20,0.02,0.04,0.01
8:17:47 PM,9.12,-0.77,-1.25,0.06,0.02,0.01
8:17:47 PM,9.34,-0.81,-1.14,0.03,-0.10,0.01
8:17:47 PM,8.60,-0.61,-1.53,0.06,0.06,0.01
8:17:47 PM,9.33,-0.79,-1.07,0.01,-0.01,0.01
8:17:47 PM,9.33,-0.89,-0.90,0.05,-0.02,0.01
8:17:47 PM,8.79,-0.68,-1.34,-0.03,0.02,0.01
8:17:47 PM,9.14,-0.81,-1.18,0.04,0.06,0.01
8:17:47 PM,8.94,-0.72,-1.30,0.03,0.04,0.01
8:17:48 PM,9.11,-0.74,-1.22,0.00,0.02,0.01
8:17:48 PM,9.12,-0.77,-1.29,-0.02,-0.01,0.01
8:17:48 PM,8.97,-0.70,-1.37,-0.01,0.01,0.01
8:17:48 PM,9.25,-0.79,-1.24,-0.04,-0.04,0.01
8:17:48 PM,9.28,-0.80,-1.29,-0.04,-0.04,0.01
8:17:48 PM,9.17,-0.78,-1.49,0.03,0.11,0.01
8:17:48 PM,9.25,-0.93,-1.00,-0.02,-0.04,0.01
8:17:48 PM,9.27,-0.83,-1.32,0.08,0.05,0.01
8:17:48 PM,9.17,-0.81,-1.26,0.02,-0.01,0.01
8:17:49 PM,9.19,-0.78,-1.20,0.01,-0.02,0.01
8:17:49 PM,9.26,-0.85,-1.00,0.03,0.01,0.01
8:17:49 PM,9.30,-0.84,-1.15,0.04,0.05,0.01
8:17:49 PM,9.29,-0.83,-0.99,0.05,-0.07,0.01
8:17:49 PM,9.24,-0.84,-1.00,0.06,-0.01,0.01
8:17:49 PM,9.07,-0.74,-1.35,0.05,0.02,0.01
8:17:49 PM,9.32,-0.89,-0.96,0.03,-0.07,0.01
8:17:49 PM,8.97,-0.77,-1.36,0.04,-0.01,0.01
8:17:49 PM,8.96,-0.68,-1.32,0.04,0.05,0.01
8:17:49 PM,8.98,-0.76,-1.33,0.00,-0.01,0.01
8:17:50 PM,9.00,-0.72,-1.40,0.01,0.01,0.01
8:17:50 PM,9.23,-0.79,-1.27,0.01,-0.01,0.01
8:17:50 PM,9.20,-0.76,-1.33,-0.01,-0.04,0.01
8:17:50 PM,9.32,-0.83,-1.17,0.01,-0.02,0.01
8:17:50 PM,9.15,-0.80,-1.19,-0.00,-0.02,0.01
8:17:50 PM,8.98,-0.74,-1.38,-0.03,-0.07,0.01
8:17:50 PM,8.93,-0.68,-1.27,0.06,0.04,0.01
8:17:50 PM,9.24,-0.78,-1.20,0.01,-0.03,0.01
8:17:50 PM,9.00,-0.66,-1.46,0.04,0.01,0.01
8:17:51 PM,9.21,-0.85,-1.08,0.03,-0.05,0.01
8:17:51 PM,9.12,-0.81,-1.12,0.01,0.02,0.01
8:17:51 PM,9.17,-0.77,-1.29,0.01,0.02,0.01
8:17:51 PM,9.13,-0.79,-1.32,-0.03,-0.00,0.01
8:17:51 PM,9.05,-0.84,-1.27,0.04,-0.03,0.01
8:17:51 PM,9.12,-0.86,-1.10,-0.01,-0.05,0.01
8:17:51 PM,9.10,-0.79,-1.35,-0.01,-0.02,0.01
8:17:51 PM,9.25,-0.88,-1.26,0.03,-0.02,0.01
8:17:51 PM,9.03,-0.80,-1.23,-0.04,-0.04,0.01
8:17:51 PM,9.09,-0.74,-1.37,-0.01,-0.02,0.01
8:17:52 PM,9.25,-0.83,-1.20,-0.01,-0.05,0.01
8:17:52 PM,9.16,-0.87,-1.14,0.03,-0.01,0.01
8:17:52 PM,9.16,-0.82,-1.11,-0.02,0.00,0.01
8:17:52 PM,9.18,-0.77,-1.36,-0.02,-0.01,0.01
8:17:52 PM,9.08,-0.79,-1.37,-0.01,-0.00,0.01
8:17:52 PM,9.27,-0.87,-1.13,0.06,-0.02,0.01
8:17:52 PM,9.10,-0.78,-1.34,0.03,-0.01,0.01
8:17:52 PM,9.21,-0.77,-1.28,-0.01,-0.00,0.01
8:17:52 PM,8.93,-0.75,-1.45,0.03,-0.00,0.01
8:17:53 PM,9.08,-0.80,-1.24,0.07,-0.03,0.01
8:17:53 PM,9.18,-0.83,-1.09,0.08,-0.00,0.01
8:17:53 PM,9.07,-0.75,-1.25,0.05,0.00,0.01
8:17:53 PM,9.15,-0.87,-1.17,0.01,-0.00,0.01
8:17:53 PM,8.95,-0.88,-0.94,-0.03,-0.02,0.01
8:17:53 PM,9.19,-0.85,-1.09,-0.00,-0.01,0.01
8:17:53 PM,9.27,-0.83,-1.16,0.02,-0.00,0.01
8:17:53 PM,9.12,-0.86,-1.22,0.00,-0.01,0.01
8:17:53 PM,9.19,-0.82,-1.41,0.01,0.06,0.01
8:17:53 PM,9.16,-0.79,-1.30,0.01,-0.06,0.01
8:17:54 PM,9.15,-0.84,-1.25,-0.00,-0.03,0.01
8:17:54 PM,9.01,-0.77,-1.38,-0.00,-0.01,0.01
8:17:54 PM,9.06,-0.78,-1.30,0.00,-0.01,0.01
8:17:54 PM,9.17,-0.84,-1.18,-0.00,-0.06,0.01
8:17:54 PM,9.15,-0.89,-1.17,0.03,-0.03,0.01
8:17:54 PM,9.12,-0.85,-1.43,-0.00,-0.03,0.01
8:17:54 PM,8.93,-0.81,-1.30,0.02,-0.00,0.01
8:17:54 PM,9.05,-0.85,-1.25,0.03,0.04,0.01
8:17:54 PM,8.98,-0.73,-1.22,0.00,0.01,0.01
8:17:55 PM,8.90,-0.76,-1.48,0.02,0.00,0.01
8:17:55 PM,9.17,-0.67,-1.23,0.02,-0.05,0.01
8:17:55 PM,9.45,-0.88,-0.98,0.02,-0.01,0.01
8:17:55 PM,8.91,-0.82,-1.21,0.05,0.03,0.01
8:17:55 PM,9.20,-0.88,-0.99,0.02,-0.02,0.01
8:17:55 PM,9.20,-0.70,-1.08,0.01,-0.05,0.01
8:17:55 PM,9.00,-0.90,-1.15,0.05,0.03,0.01
8:17:55 PM,9.00,-0.79,-1.19,0.03,0.01,0.01
8:17:55 PM,9.16,-0.84,-1.14,0.03,-0.01,0.01
8:17:56 PM,9.08,-0.93,-1.14,-0.02,-0.02,0.01
8:17:56 PM,9.09,-0.81,-1.16,0.00,0.02,0.01
8:17:56 PM,9.00,-0.83,-1.42,0.00,-0.02,0.01
8:17:56 PM,9.05,-0.85,-1.19,0.01,-0.07,0.01
8:17:56 PM,9.05,-0.79,-1.28,-0.00,0.01,0.01
8:17:56 PM,9.03,-0.76,-1.41,-0.01,-0.01,0.01
8:17:56 PM,9.12,-0.91,-1.15,0.05,-0.06,0.01
8:17:56 PM,8.89,-0.71,-1.32,0.00,0.00,0.01
8:17:56 PM,9.18,-0.83,-1.41,0.00,-0.02,0.01
8:17:56 PM,9.11,-0.78,-1.35,-0.02,-0.02,0.01
8:17:57 PM,9.10,-0.78,-1.32,0.09,-0.00,0.01
8:17:57 PM,9.09,-0.85,-1.28,0.02,-0.01,0.01
8:17:57 PM,9.11,-0.83,-1.39,-0.02,-0.03,0.01
8:17:57 PM,9.00,-0.83,-1.40,-0.00,-0.03,0.01
8:17:57 PM,9.18,-0.83,-1.31,0.02,-0.02,0.01
8:17:57 PM,9.06,-0.88,-1.24,0.01,-0.03,0.01
8:17:57 PM,9.01,-0.85,-1.19,0.01,-0.00,0.01
8:17:57 PM,9.08,-0.83,-1.33,-0.00,0.00,0.01
8:17:57 PM,9.23,-0.91,-1.21,0.00,-0.02,0.01
8:17:58 PM,9.16,-0.86,-1.21,0.01,0.01,0.01
8:17:58 PM,9.27,-0.86,-1.15,0.03,-0.07,0.01
8:17:58 PM,9.15,-0.78,-1.54,0.02,-0.03,0.01
8:17:58 PM,9.00,-0.78,-1.39,0.03,0.03,0.01
8:17:58 PM,9.25,-0.86,-1.10,0.02,-0.02,0.01
8:17:58 PM,9.17,-0.81,-1.29,0.02,-0.05,0.01
8:17:58 PM,8.98,-0.89,-1.22,0.01,-0.08,0.01
8:17:58 PM,9.08,-0.85,-1.23,0.00,-0.01,0.01
8:17:58 PM,9.14,-0.83,-1.37,0.00,-0.00,0.01
8:17:58 PM,9.11,-0.75,-1.42,-0.01,-0.02,0.01
8:17:59 PM,9.18,-0.87,-1.37,0.01,-0.04,0.01
8:17:59 PM,9.03,-0.84,-1.43,0.00,-0.01,0.01
8:17:59 PM,9.08,-0.84,-1.36,0.02,-0.01,0.01
8:17:59 PM,8.97,-0.83,-1.46,0.01,-0.00,0.01
8:17:59 PM,8.96,-0.78,-1.45,0.01,0.00,0.01
8:17:59 PM,9.01,-0.79,-1.49,0.01,-0.01,0.01
8:17:59 PM,9.11,-0.83,-1.30,0.01,0.01,0.01
8:17:59 PM,9.04,-0.86,-1.13,0.02,-0.00,0.01
8:17:59 PM,9.22,-0.86,-1.27,0.01,-0.02,0.01
8:18:00 PM,8.94,-0.70,-1.50,0.00,0.01,0.01
8:18:00 PM,9.18,-0.86,-1.24,0.00,-0.03,0.01
8:18:00 PM,9.10,-0.85,-1.26,0.00,-0.03,0.01
8:18:00 PM,9.28,-0.87,-1.12,0.02,-0.03,0.01
8:18:00 PM,9.21,-0.80,-1.47,0.01,0.00,0.01
8:18:00 PM,9.07,-0.87,-1.36,0.02,-0.04,0.01
8:18:00 PM,8.94,-0.78,-1.36,0.00,-0.00,0.01
8:18:00 PM,9.09,-0.83,-1.44,-0.00,0.00,0.01
8:18:00 PM,9.19,-0.86,-1.28,0.01,-0.03,0.01
8:18:00 PM,9.28,-0.84,-1.24,0.04,-0.00,0.01
8:18:01 PM,9.24,-0.89,-1.18,0.03,-0.03,0.01
8:18:01 PM,9.11,-0.85,-1.41,0.04,-0.02,0.01
8:18:01 PM,9.07,-0.83,-1.33,0.04,0.01,0.01
8:18:01 PM,9.09,-0.85,-1.33,0.03,0.01,0.01
8:18:01 PM,9.04,-0.89,-1.29,0.00,-0.03,0.01
8:18:01 PM,9.30,-0.90,-1.29,0.00,0.03,0.01
8:18:01 PM,9.05,-0.83,-1.43,0.01,0.01,0.01
8:18:01 PM,9.10,-0.85,-1.31,0.04,-0.02,0.01
8:18:01 PM,9.17,-0.87,-1.34,-0.01,0.00,0.01
8:18:02 PM,9.12,-0.84,-1.33,-0.02,0.01,0.01
8:18:02 PM,8.98,-0.78,-1.44,-0.03,-0.08,0.01
8:18:02 PM,9.21,-0.88,-1.35,0.01,-0.02,0.01
8:18:02 PM,9.11,-0.85,-1.40,0.00,0.03,0.01
8:18:02 PM,9.11,-0.82,-1.33,0.01,-0.01,0.01
8:18:02 PM,8.94,-0.84,-1.45,0.01,0.02,0.01
8:18:02 PM,9.07,-0.79,-1.40,-0.02,0.04,0.01
8:18:02 PM,9.05,-0.78,-1.55,-0.04,-0.02,0.01
8:18:02 PM,9.08,-0.84,-1.37,-0.00,-0.00,0.01
8:18:02 PM,9.16,-0.90,-1.23,-0.01,0.01,0.01
8:18:03 PM,9.22,-0.88,-1.33,0.01,-0.01,0.01
8:18:03 PM,9.17,-0.88,-1.35,0.01,-0.04,0.01
8:18:03 PM,9.11,-0.88,-1.30,-0.00,-0.03,0.01
8:18:03 PM,9.17,-0.83,-1.29,0.01,-0.06,0.01
8:18:03 PM,9.10,-0.85,-1.30,0.01,0.01,0.01
8:18:03 PM,9.20,-0.80,-1.32,-0.00,-0.04,0.01
8:18:03 PM,9.12,-0.75,-1.57,0.01,-0.01,0.01
8:18:03 PM,9.06,-0.76,-1.49,0.01,-0.02,0.01
8:18:03 PM,9.23,-0.89,-1.16,0.00,-0.03,0.01
8:18:04 PM,9.25,-0.92,-1.27,0.01,-0.02,0.01
8:18:04 PM,9.09,-0.95,-1.41,0.02,-0.04,0.01
8:18:04 PM,9.15,-0.92,-1.24,-0.01,-0.02,0.01
8:18:04 PM,9.01,-0.84,-1.44,0.02,0.02,0.01
8:18:04 PM,9.02,-0.80,-1.51,-0.02,-0.00,0.01
8:18:04 PM,9.19,-0.86,-1.33,0.03,-0.02,0.01
8:18:04 PM,9.33,-0.89,-1.29,0.02,-0.03,0.01
8:18:04 PM,9.09,-0.80,-1.29,0.02,-0.04,0.01
8:18:04 PM,9.02,-0.78,-1.45,0.01,-0.02,0.01
8:18:05 PM,9.07,-0.75,-1.47,0.01,-0.01,0.01
8:18:05 PM,9.21,-0.86,-1.36,0.02,-0.00,0.01
8:18:05 PM,9.15,-0.85,-1.39,-0.01,-0.03,0.01
8:18:05 PM,9.17,-0.84,-1.42,0.04,0.00,0.01
8:18:05 PM,9.00,-0.81,-1.40,0.01,-0.07,0.01
8:18:05 PM,8.84,-0.79,-1.43,0.00,0.00,0.01
8:18:05 PM,9.09,-0.81,-1.47,0.05,0.03,0.01
8:18:05 PM,9.09,-0.86,-1.24,0.03,-0.01,0.01
8:18:05 PM,9.12,-0.91,-1.28,0.02,-0.01,0.01
8:18:05 PM,9.03,-0.80,-1.50,-0.01,-0.01,0.01
8:18:06 PM,9.23,-0.80,-1.43,0.04,-0.00,0.01
8:18:06 PM,9.21,-0.84,-1.44,0.02,-0.03,0.01
8:18:06 PM,9.04,-0.84,-1.41,0.00,-0.04,0.01
8:18:06 PM,9.05,-0.82,-1.40,0.03,0.01,0.01
8:18:06 PM,9.16,-0.90,-1.34,0.02,0.00,0.01
8:18:06 PM,9.09,-0.81,-1.38,0.00,0.02,0.01
8:18:06 PM,9.09,-0.82,-1.37,0.02,0.00,0.01
8:18:06 PM,9.02,-0.80,-1.45,-0.01,0.01,0.01
8:18:06 PM,9.05,-0.81,-1.42,-0.00,-0.03,0.01
8:18:06 PM,9.16,-0.87,-1.22,0.00,-0.01,0.01
8:18:07 PM,8.99,-0.80,-1.42,-0.01,-0.03,0.01
8:18:07 PM,9.07,-0.80,-1.45,0.00,0.00,0.01
8:18:07 PM,9.00,-0.84,-1.25,0.01,-0.05,0.01
8:18:07 PM,9.11,-0.85,-1.35,-0.00,-0.01,0.01
8:18:07 PM,9.16,-0.84,-1.36,0.02,-0.02,0.01
8:18:07 PM,9.06,-0.84,-1.42,0.01,0.00,0.01
8:18:07 PM,9.22,-0.88,-1.46,0.02,-0.07,0.01
8:18:07 PM,9.20,-0.86,-1.31,0.06,-0.04,0.01
8:18:07 PM,9.09,-0.87,-1.26,0.02,-0.02,0.01
8:18:08 PM,9.12,-0.78,-1.47,0.02,-0.04,0.01
8:18:08 PM,8.95,-0.73,-1.51,0.02,-0.08,0.01
8:18:08 PM,9.06,-0.78,-1.30,0.02,-0.01,0.01
8:18:08 PM,9.30,-0.81,-1.30,0.02,-0.03,0.01
8:18:08 PM,9.04,-0.79,-1.48,-0.00,-0.04,0.01
8:18:08 PM,9.11,-0.79,-1.38,-0.01,-0.00,0.01
8:18:08 PM,9.11,-0.81,-1.50,-0.01,-0.00,0.01
8:18:08 PM,9.05,-0.76,-1.54,-0.01,0.00,0.01
8:18:08 PM,9.11,-0.81,-1.39,0.01,-0.03,0.01
8:18:09 PM,9.16,-0.82,-1.40,0.03,-0.01,0.01
8:18:09 PM,9.19,-0.80,-1.57,0.03,0.01,0.01
8:18:09 PM,8.95,-0.83,-1.51,0.05,-0.01,0.01
8:18:09 PM,9.20,-0.77,-1.31,-0.00,-0.04,0.01
8:18:09 PM,9.28,-0.89,-1.29,0.04,-0.00,0.01
8:18:09 PM,9.22,-0.85,-1.36,-0.02,-0.06,0.01
8:18:09 PM,9.17,-0.82,-1.42,0.02,-0.03,0.01
8:18:09 PM,9.00,-0.73,-1.59,-0.01,0.01,0.01
8:18:09 PM,9.17,-0.83,-1.43,-0.01,-0.01,0.01
8:18:09 PM,9.09,-0.79,-1.47,0.01,-0.01,0.01
8:18:10 PM,9.14,-0.79,-1.31,0.01,0.01,0.01
8:18:10 PM,9.17,-0.80,-1.37,0.04,-0.03,0.01
8:18:10 PM,9.06,-0.76,-1.42,0.03,0.01,0.01
8:18:10 PM,9.13,-0.76,-1.40,-0.00,-0.02,0.01
8:18:10 PM,9.08,-0.78,-1.53,-0.02,0.00,0.01
8:18:10 PM,8.94,-0.75,-1.52,0.01,-0.01,0.01
8:18:10 PM,9.08,-0.77,-1.50,0.01,-0.01,0.01
8:18:10 PM,9.28,-0.79,-1.50,0.02,-0.01,0.01
8:18:10 PM,9.16,-0.86,-1.36,0.00,-0.07,0.01
8:18:11 PM,9.01,-0.82,-1.34,-0.01,-0.04,0.01
8:18:11 PM,9.08,-0.87,-1.32,0.00,-0.04,0.01
8:18:11 PM,9.18,-0.82,-1.50,-0.04,-0.02,0.01
8:18:11 PM,9.09,-0.79,-1.41,0.01,-0.02,0.01
8:18:11 PM,9.11,-0.81,-1.43,-0.01,-0.02,0.01
8:18:11 PM,9.15,-0.78,-1.48,-0.02,-0.01,0.01
8:18:11 PM,9.03,-0.81,-1.36,-0.01,-0.06,0.01
8:18:11 PM,9.21,-0.82,-1.43,0.02,0.01,0.01
8:18:11 PM,9.13,-0.75,-1.44,0.01,0.01,0.01
8:18:11 PM,9.19,-0.85,-1.42,-0.00,-0.01,0.01
8:18:12 PM,9.13,-0.80,-1.54,0.01,-0.02,0.01
8:18:12 PM,8.94,-0.74,-1.55,-0.01,-0.04,0.01
8:18:12 PM,9.10,-0.80,-1.53,-0.01,0.00,0.01
8:18:12 PM,9.05,-0.77,-1.60,-0.02,-0.06,0.01
8:18:12 PM,9.07,-0.83,-1.41,-0.00,-0.02,0.01
8:18:12 PM,9.26,-0.86,-1.46,0.02,-0.01,0.01
8:18:12 PM,9.22,-0.85,-1.54,0.04,-0.04,0.01
8:18:12 PM,9.01,-0.79,-1.51,0.02,-0.02,0.01
8:18:12 PM,9.10,-0.89,-1.50,0.03,-0.03,0.01
8:18:13 PM,9.26,-0.83,-1.59,0.06,0.01,0.01
8:18:13 PM,9.11,-0.84,-1.44,-0.01,0.01,0.01
8:18:13 PM,9.15,-0.80,-1.54,-0.00,0.02,0.01
8:18:13 PM,9.20,-0.79,-1.57,0.00,0.00,0.01
8:18:13 PM,9.07,-0.85,-1.46,0.01,-0.05,0.01
8:18:13 PM,9.13,-0.84,-1.40,-0.01,0.01,0.01
8:18:13 PM,9.10,-0.78,-1.58,0.02,-0.02,0.01
8:18:13 PM,9.06,-0.85,-1.41,0.00,-0.03,0.01
8:18:13 PM,9.14,-0.81,-1.57,0.01,-0.01,0.01
8:18:13 PM,9.12,-0.80,-1.48,0.04,-0.04,0.01
8:18:14 PM,9.07,-0.87,-1.28,0.00,-0.03,0.01
8:18:14 PM,9.15,-0.88,-1.39,0.03,0.03,0.01
8:18:14 PM,9.11,-0.85,-1.46,0.01,0.01,0.01
8:18:14 PM,9.10,-0.82,-1.35,0.03,-0.01,0.01
8:18:14 PM,9.21,-1.02,-1.20,0.01,-0.03,0.01
8:18:14 PM,9.10,-0.82,-1.55,0.04,0.02,0.01
8:18:14 PM,9.17,-0.89,-1.29,0.03,0.04,0.01
8:18:14 PM,9.26,-0.92,-1.18,-0.00,-0.04,0.01
8:18:14 PM,9.12,-0.89,-1.33,0.02,0.02,0.01
8:18:15 PM,9.35,-0.90,-1.39,0.01,-0.04,0.01
8:18:15 PM,9.27,-0.88,-1.45,0.02,-0.02,0.01
8:18:15 PM,9.25,-0.87,-1.37,0.03,-0.04,0.01
8:18:15 PM,9.00,-0.92,-1.24,0.00,-0.03,0.01
8:18:15 PM,8.91,-0.82,-1.46,0.00,-0.00,0.01
8:18:15 PM,9.26,-0.88,-1.36,0.01,-0.05,0.01
8:18:15 PM,9.15,-0.91,-1.24,0.01,-0.02,0.01
8:18:15 PM,9.13,-0.90,-1.42,0.01,-0.00,0.01
8:18:15 PM,9.03,-0.84,-1.45,0.04,0.02,0.01
8:18:15 PM,9.27,-0.79,-1.49,0.10,-0.04,0.01
8:18:16 PM,9.17,-0.84,-1.56,0.00,-0.08,0.01
8:18:16 PM,8.95,-0.82,-1.51,-0.01,-0.03,0.01
8:18:16 PM,9.11,-0.81,-1.50,0.02,-0.01,0.01
8:18:16 PM,9.13,-0.91,-1.36,0.01,-0.01,0.01
8:18:16 PM,8.66,-0.78,-1.30,0.03,0.00,0.01
8:18:16 PM,8.68,-0.79,-1.30,0.04,0.06,0.01
8:18:16 PM,8.80,-0.81,-1.49,-0.01,0.01,0.01
8:18:16 PM,9.14,-0.80,-1.50,0.03,-0.02,0.01
8:18:16 PM,9.17,-0.85,-1.44,-0.01,-0.05,0.01
8:18:17 PM,9.04,-0.79,-1.60,0.03,0.03,0.01
8:18:17 PM,9.23,-0.86,-1.51,0.01,-0.01,0.01
8:18:17 PM,9.03,-0.79,-1.55,0.03,-0.03,0.01
8:18:17 PM,9.09,-0.95,-1.34,0.03,-0.01,0.01
8:18:17 PM,9.23,-0.89,-1.46,-0.00,-0.06,0.01
8:18:17 PM,9.09,-1.00,-1.55,0.03,-0.02,0.01
8:18:17 PM,9.22,-0.87,-1.34,0.02,0.01,0.01
8:18:17 PM,9.07,-0.84,-1.45,0.00,0.02,0.01
8:18:17 PM,9.14,-0.80,-1.54,0.01,-0.03,0.01
8:18:17 PM,9.06,-0.85,-1.41,-0.01,-0.03,0.01
8:18:18 PM,9.08,-0.79,-1.49,-0.01,-0.02,0.01
8:18:18 PM,9.21,-0.89,-1.43,0.01,-0.04,0.01
8:18:18 PM,9.07,-0.85,-1.44,-0.00,0.03,0.01
8:18:18 PM,9.03,-0.84,-1.51,0.03,0.00,0.01
8:18:18 PM,9.19,-0.89,-1.37,0.00,-0.03,0.01
8:18:18 PM,9.10,-0.79,-1.60,0.01,0.03,0.01
8:18:18 PM,9.10,-0.83,-1.53,0.00,0.01,0.01
8:18:18 PM,9.10,-0.77,-1.59,-0.00,-0.02,0.01
8:18:18 PM,8.97,-0.91,-1.35,0.02,-0.02,0.01
8:18:19 PM,8.83,-0.62,-1.77,0.01,-0.07,0.01
8:18:19 PM,9.11,-0.80,-1.44,-0.09,0.01,0.01
8:18:19 PM,7.64,-0.37,-2.07,-0.22,-0.08,0.02
8:18:19 PM,9.52,-0.99,-1.50,0.03,0.03,0.01
8:18:19 PM,9.14,-0.93,-1.49,0.03,-0.08,0.01
8:18:19 PM,8.91,-0.87,-1.56,0.04,-0.03,0.01
8:18:19 PM,9.08,-0.90,-1.47,-0.00,-0.03,0.01
8:18:19 PM,9.11,-0.90,-1.63,0.01,-0.04,0.01
8:18:19 PM,9.08,-0.88,-1.64,0.05,-0.02,0.01
8:18:19 PM,9.15,-0.93,-1.51,0.01,-0.02,0.01
8:18:20 PM,8.95,-0.88,-1.62,0.01,-0.00,0.01
8:18:20 PM,9.13,-0.87,-1.47,0.03,-0.03,0.01
8:18:20 PM,9.09,-0.82,-1.61,0.04,0.01,0.01
8:18:20 PM,9.20,-0.83,-1.57,0.01,-0.02,0.01
8:18:20 PM,8.76,-0.80,-1.54,-0.01,0.03,0.01
8:18:20 PM,9.26,-0.82,-1.59,0.03,0.01,0.01
8:18:20 PM,9.02,-0.79,-1.67,0.01,-0.03,0.01
8:18:20 PM,9.12,-0.81,-1.58,0.03,-0.04,0.01
8:18:20 PM,9.06,-0.91,-1.48,-0.00,-0.05,0.01
8:18:21 PM,9.17,-0.90,-1.36,0.03,0.01,0.01
8:18:21 PM,9.13,-0.89,-1.49,0.00,-0.04,0.01
8:18:21 PM,9.10,-0.95,-1.40,0.04,-0.02,0.01
8:18:21 PM,9.18,-0.89,-1.41,0.03,0.00,0.01
8:18:21 PM,9.08,-0.82,-1.65,0.01,-0.01,0.01
8:18:21 PM,9.14,-0.85,-1.64,0.02,-0.03,0.01
8:18:21 PM,9.12,-0.90,-1.57,0.02,-0.05,0.01
8:18:21 PM,9.01,-0.84,-1.60,0.01,-0.03,0.01
8:18:21 PM,9.06,-0.89,-1.54,-0.03,-0.00,0.01
8:18:22 PM,9.32,-0.92,-1.34,0.00,-0.06,0.01
8:18:22 PM,9.21,-0.86,-1.65,-0.02,-0.01,0.01
8:18:22 PM,8.97,-0.81,-1.69,0.00,-0.00,0.01
8:18:22 PM,9.06,-0.76,-1.92,0.03,0.04,0.01
8:18:22 PM,9.22,-0.94,-1.43,-0.01,-0.07,0.01
8:18:22 PM,9.11,-0.91,-1.52,0.01,-0.01,0.01
8:18:22 PM,8.99,-0.83,-1.56,0.02,-0.01,0.01
8:18:22 PM,9.25,-0.89,-1.54,0.03,0.03,0.01
8:18:22 PM,8.81,-0.75,-1.65,0.06,0.11,0.01
8:18:22 PM,9.26,-0.88,-1.65,0.06,0.03,0.01
8:18:23 PM,9.28,-0.95,-1.43,0.00,-0.03,0.01
8:18:23 PM,8.97,-0.85,-1.66,0.04,0.01,0.01
8:18:23 PM,9.15,-0.90,-1.41,0.03,-0.03,0.01
8:18:23 PM,9.17,-0.76,-1.76,0.04,0.03,0.01
8:18:23 PM,9.08,-0.95,-1.36,-0.00,-0.08,0.01
8:18:23 PM,8.98,-0.79,-1.53,0.04,-0.02,0.01
8:18:23 PM,9.48,-1.07,-1.19,0.08,0.01,0.01
8:18:23 PM,9.40,-0.94,-1.53,0.08,-0.01,0.01
8:18:23 PM,9.11,-0.85,-1.59,0.02,-0.03,0.01
8:18:24 PM,9.11,-0.91,-1.50,0.02,-0.01,0.01
8:18:24 PM,8.99,-0.90,-1.53,0.02,-0.00,0.01
8:18:24 PM,9.00,-0.85,-1.55,0.01,0.03,0.01
8:18:24 PM,9.21,-0.89,-1.52,0.01,0.02,0.01
8:18:24 PM,8.92,-0.78,-1.62,0.02,0.00,0.01
8:18:24 PM,9.15,-0.79,-1.49,0.03,-0.02,0.01
8:18:24 PM,9.14,-0.88,-1.48,-0.04,-0.02,0.01
8:18:24 PM,10.62,-0.48,-2.12,-0.17,0.18,0.01
8:18:24 PM,8.55,-0.63,-1.52,0.05,-0.09,0.01
8:18:24 PM,9.78,-0.91,-0.99,0.09,0.03,0.01
8:18:25 PM,10.75,-0.85,-1.11,0.19,0.40,0.01
8:18:25 PM,9.48,-0.24,-1.18,-0.02,0.01,0.01
8:18:25 PM,9.20,-0.30,-1.01,0.03,0.07,0.01
8:18:25 PM,9.34,-0.36,-0.82,-0.04,0.01,0.01
8:18:25 PM,9.19,-0.28,-0.99,-0.00,-0.01,0.01
8:18:25 PM,9.22,-0.34,-0.89,-0.04,-0.05,0.01
8:18:25 PM,10.39,-0.58,-0.75,-0.05,-0.07,0.01
8:18:25 PM,8.82,-0.24,-1.23,0.00,-0.08,0.01
8:18:25 PM,8.98,-0.27,-1.37,0.03,-0.04,0.01
8:18:26 PM,9.36,-0.33,-1.27,-0.05,-0.06,0.01
8:18:26 PM,9.29,-0.39,-1.12,0.01,-0.05,0.01
8:18:26 PM,9.19,-0.49,-0.91,0.00,-0.08,0.01
8:18:26 PM,9.17,-0.40,-1.09,0.04,0.10,0.01
8:18:26 PM,9.19,-0.38,-1.11,0.02,-0.04,0.01
8:18:26 PM,9.02,-0.41,-1.23,0.03,-0.03,0.01
8:18:26 PM,8.53,-0.41,-1.31,0.03,-0.17,0.01
8:18:26 PM,9.31,-0.45,-1.24,0.06,0.01,0.01
8:18:26 PM,9.14,-0.48,-1.34,0.00,-0.04,0.01
8:18:26 PM,9.07,-0.47,-1.29,-0.02,-0.04,0.01
8:18:27 PM,9.15,-0.53,-1.34,-0.03,-0.03,0.01
8:18:27 PM,9.10,-0.45,-1.44,0.01,0.05,0.01
8:18:27 PM,9.12,-0.60,-1.19,0.01,-0.05,0.01
8:18:27 PM,9.24,-0.53,-1.21,-0.00,-0.03,0.01
8:18:27 PM,9.19,-0.51,-1.39,-0.00,0.04,0.01
8:18:27 PM,9.12,-0.52,-1.29,-0.02,-0.02,0.01
8:18:27 PM,9.30,-0.57,-1.19,0.02,-0.02,0.01
8:18:27 PM,9.17,-0.61,-1.16,-0.01,-0.05,0.01
8:18:27 PM,8.92,-0.45,-1.47,0.00,0.02,0.01
8:18:28 PM,9.39,-0.51,-1.45,0.01,0.05,0.01
8:18:28 PM,8.93,-0.50,-1.28,0.01,-0.02,0.01
8:18:28 PM,9.20,-0.55,-1.21,-0.02,0.06,0.01
8:18:28 PM,9.35,-0.49,-1.33,0.01,-0.01,0.01
8:18:28 PM,9.11,-0.47,-1.31,0.02,-0.02,0.01
8:18:28 PM,9.05,-0.40,-1.41,-0.02,-0.06,0.01
8:18:28 PM,8.91,-0.47,-1.30,0.12,-0.05,0.01
8:18:28 PM,9.37,-0.54,-1.25,-0.01,-0.04,0.01
8:18:28 PM,9.11,-0.49,-1.36,-0.04,-0.01,0.01
8:18:28 PM,9.18,-0.48,-1.30,0.03,0.01,0.01
8:18:29 PM,9.19,-0.48,-1.41,-0.01,-0.01,0.01
8:18:29 PM,9.06,-0.47,-1.45,0.03,0.01,0.01
8:18:29 PM,9.00,-0.44,-1.35,0.01,-0.01,0.01
8:18:29 PM,9.17,-0.54,-1.11,-0.03,-0.01,0.01
8:18:29 PM,9.25,-0.49,-1.29,-0.00,-0.02,0.01
8:18:29 PM,9.27,-0.52,-1.22,-0.00,-0.01,0.01
8:18:29 PM,9.20,-0.45,-1.40,-0.01,-0.02,0.01
8:18:29 PM,9.09,-0.49,-1.31,0.02,-0.05,0.01
8:18:29 PM,9.36,-0.56,-1.12,0.08,-0.04,0.01
8:18:30 PM,9.25,-0.52,-1.21,0.02,-0.04,0.01
8:18:30 PM,9.17,-0.49,-1.33,0.04,-0.02,0.01
8:18:30 PM,9.12,-0.51,-1.30,-0.01,-0.01,0.01
8:18:30 PM,9.29,-0.46,-1.35,0.04,-0.03,0.01
8:18:30 PM,8.97,-0.44,-1.31,0.01,-0.03,0.01
8:18:30 PM,9.02,-0.44,-1.49,-0.02,-0.01,0.01
8:18:30 PM,8.88,-0.35,-1.63,-0.00,-0.00,0.01
8:18:30 PM,9.27,-0.39,-1.43,0.01,-0.04,0.01
8:18:30 PM,8.94,-0.40,-1.50,-0.04,0.02,0.01
8:18:30 PM,9.25,-0.46,-1.39,-0.02,-0.03,0.01
8:18:31 PM,9.10,-0.46,-1.29,0.00,-0.03,0.01
8:18:31 PM,9.13,-0.41,-1.46,0.00,-0.00,0.01
8:18:31 PM,9.18,-0.46,-1.29,-0.02,-0.01,0.01
8:18:31 PM,9.19,-0.49,-1.12,-0.01,-0.06,0.01
8:18:31 PM,9.19,-0.48,-1.36,-0.00,-0.01,0.01
8:18:31 PM,9.04,-0.54,-1.21,0.02,-0.04,0.01
8:18:31 PM,8.99,-0.44,-1.27,-0.04,0.00,0.01
8:18:31 PM,9.28,-0.48,-1.26,0.00,-0.02,0.01
8:18:31 PM,9.53,-0.50,-1.20,0.02,-0.10,0.01
8:18:32 PM,9.08,-0.49,-1.27,0.00,-0.02,0.01
8:18:32 PM,9.25,-0.49,-1.18,0.03,-0.02,0.01
8:18:32 PM,9.08,-0.43,-1.37,0.01,0.00,0.01
8:18:32 PM,9.17,-0.42,-1.39,0.04,0.01,0.01
8:18:32 PM,9.21,-0.46,-1.30,-0.01,-0.03,0.01
8:18:32 PM,9.16,-0.40,-1.35,-0.03,-0.01,0.01
8:18:32 PM,9.23,-0.50,-1.35,-0.03,-0.02,0.01
8:18:32 PM,9.33,-0.48,-1.38,0.01,-0.03,0.01
8:18:32 PM,9.35,-0.45,-1.32,0.06,-0.01,0.01
8:18:32 PM,8.88,-0.39,-1.61,0.00,0.03,0.01
8:18:33 PM,9.53,-0.21,-0.59,0.09,0.01,0.01
8:18:33 PM,9.16,-0.39,-1.51,-0.00,-0.01,0.01
8:18:33 PM,9.17,-0.49,-1.18,0.02,0.00,0.01
8:18:33 PM,9.10,-0.41,-1.35,0.01,0.08,0.01
8:18:33 PM,9.22,-0.46,-1.13,0.01,-0.04,0.01
8:18:33 PM,9.22,-0.39,-1.30,0.01,-0.01,0.01
8:18:33 PM,9.30,-0.43,-1.25,-0.02,-0.05,0.01
8:18:33 PM,9.09,-0.40,-1.17,0.01,0.00,0.01
8:18:33 PM,9.11,-0.36,-1.30,0.01,-0.01,0.01
8:18:34 PM,9.22,-0.49,-1.28,0.03,0.03,0.01
8:18:34 PM,9.13,-0.45,-1.14,0.00,-0.03,0.01
8:18:34 PM,9.30,-0.44,-1.24,-0.00,-0.01,0.01
8:18:34 PM,9.22,-0.46,-1.04,0.01,-0.01,0.01
8:18:34 PM,8.98,-0.43,-1.16,0.02,0.02,0.01
8:18:34 PM,9.14,-0.35,-1.41,0.01,0.03,0.01
8:18:34 PM,9.30,-0.40,-1.21,-0.01,-0.04,0.01
8:18:34 PM,9.17,-0.38,-1.26,-0.03,-0.02,0.01
8:18:34 PM,9.37,-0.41,-1.34,0.02,-0.03,0.01
8:18:35 PM,9.28,-0.49,-1.09,0.04,-0.04,0.01
8:18:35 PM,9.28,-0.42,-1.34,0.02,-0.04,0.01
8:18:35 PM,9.25,-0.30,-1.58,0.03,-0.01,0.01
8:18:35 PM,9.11,-0.31,-1.50,0.00,-0.02,0.01
8:18:35 PM,8.99,-0.37,-1.38,0.01,-0.03,0.01
8:18:35 PM,9.26,-0.46,-1.30,0.01,-0.05,0.01
8:18:35 PM,9.11,-0.40,-1.35,-0.06,-0.02,0.01
8:18:35 PM,9.20,-0.42,-1.36,0.01,-0.00,0.01
8:18:35 PM,9.30,-0.44,-1.30,-0.02,-0.02,0.01
8:18:35 PM,9.23,-0.40,-1.25,0.05,0.02,0.01
8:18:36 PM,9.34,-0.49,-1.19,-0.00,-0.03,0.01
8:18:36 PM,8.94,-0.38,-1.32,0.04,-0.02,0.01
8:18:36 PM,9.11,-0.40,-1.36,0.01,0.02,0.01
8:18:36 PM,9.15,-0.42,-1.29,0.00,-0.00,0.01
8:18:36 PM,9.41,-0.50,-1.11,0.02,-0.01,0.01
8:18:36 PM,9.31,-0.42,-1.22,0.01,-0.02,0.01
8:18:36 PM,9.30,-0.43,-1.19,0.03,0.02,0.01
8:18:36 PM,9.14,-0.36,-1.37,0.02,-0.01,0.01
8:18:36 PM,9.23,-0.37,-1.24,-0.02,0.01,0.01
8:18:37 PM,9.06,-0.43,-1.24,0.02,0.03,0.01
8:18:37 PM,9.22,-0.40,-1.31,-0.01,-0.01,0.01
8:18:37 PM,9.10,-0.38,-1.29,0.01,-0.03,0.01
8:18:37 PM,9.09,-0.50,-1.09,0.03,-0.03,0.01
8:18:37 PM,9.10,-0.34,-1.37,-0.01,-0.02,0.01
8:18:37 PM,9.35,-0.44,-1.25,-0.00,0.01,0.01
8:18:37 PM,7.51,-0.06,-1.56,-0.08,-0.07,0.01
8:18:37 PM,8.99,-0.21,-1.27,0.06,-0.03,0.01
8:18:37 PM,9.32,-0.28,-1.15,-0.04,-0.04,0.01
8:18:37 PM,9.00,-0.18,-1.42,-0.04,-0.03,0.01
8:18:38 PM,9.10,-0.31,-1.20,-0.03,-0.09,0.01
8:18:38 PM,9.12,-0.21,-1.30,-0.02,-0.02,0.01
8:18:38 PM,9.39,-0.24,-1.20,0.01,-0.02,0.01
8:18:38 PM,9.31,-0.34,-0.92,0.03,-0.01,0.01
8:18:38 PM,9.33,-0.28,-1.13,-0.01,0.01,0.01
8:18:38 PM,9.20,-0.29,-1.19,0.03,-0.04,0.01
8:18:38 PM,9.04,-0.22,-1.13,0.03,0.04,0.01
8:18:38 PM,9.19,-0.23,-1.23,0.02,-0.01,0.01
8:18:38 PM,8.95,-0.22,-1.35,0.05,0.04,0.01
8:18:39 PM,8.90,-0.24,-1.15,0.06,0.02,0.01
8:18:39 PM,9.14,-0.31,-1.06,0.00,0.02,0.01
8:18:39 PM,9.16,-0.25,-1.02,0.00,-0.04,0.01
8:18:39 PM,9.24,-0.28,-1.17,0.01,0.00,0.01
8:18:39 PM,9.18,-0.24,-1.28,0.06,0.05,0.01
8:18:39 PM,9.12,-0.19,-1.22,-0.06,-0.05,0.01
8:18:39 PM,9.16,-0.23,-1.27,0.11,-0.04,0.01
8:18:39 PM,9.09,-0.20,-1.07,0.07,-0.05,0.01
8:18:39 PM,9.03,-0.25,-1.09,0.04,-0.07,0.01
8:18:39 PM,9.10,-0.20,-1.34,0.02,-0.03,0.01
8:18:40 PM,9.12,-0.25,-1.08,0.15,0.00,0.01
8:18:40 PM,8.97,-0.24,-1.12,-0.00,0.05,0.01
8:18:40 PM,9.26,-0.28,-1.25,-0.05,-0.07,0.01
8:18:40 PM,9.30,-0.36,-1.09,0.04,-0.07,0.01
8:18:40 PM,10.26,-0.53,-0.92,0.03,0.03,0.01
8:18:40 PM,9.40,-0.43,-1.18,0.02,-0.09,0.01
8:18:40 PM,8.88,-0.12,-1.50,0.06,-0.28,0.01
8:18:40 PM,8.95,-0.42,-1.34,0.03,-0.04,0.01
8:18:40 PM,9.26,-0.62,-1.27,0.06,-0.05,0.01
8:18:41 PM,9.07,-0.62,-1.21,0.01,0.06,0.01
8:18:41 PM,9.25,-0.51,-1.34,0.06,-0.06,0.01
8:18:41 PM,9.13,-0.46,-1.52,0.09,-0.02,0.01
8:18:41 PM,9.28,-0.57,-1.02,0.00,-0.03,0.01
8:18:41 PM,9.46,-0.40,-1.43,0.02,-0.09,0.01
8:18:41 PM,9.29,-0.56,-1.07,0.05,-0.09,0.01
8:18:41 PM,9.07,-0.51,-1.41,0.02,0.06,0.01
8:18:41 PM,9.47,-0.53,-1.19,0.00,-0.01,0.01
8:18:41 PM,9.09,-0.50,-1.42,0.02,-0.01,0.01
8:18:41 PM,9.14,-0.50,-1.23,0.09,-0.01,0.01
8:18:42 PM,9.22,-0.36,-1.56,-0.00,0.01,0.01
8:18:42 PM,9.17,-0.47,-1.27,-0.03,-0.09,0.01
8:18:42 PM,9.21,-0.52,-1.25,0.05,0.01,0.01
8:18:42 PM,9.12,-0.41,-1.58,0.03,0.02,0.01
8:18:42 PM,9.21,-0.45,-1.40,0.03,-0.00,0.01
8:18:42 PM,9.16,-0.41,-1.56,0.02,0.01,0.01
8:18:42 PM,9.31,-0.45,-1.33,0.01,-0.06,0.01
8:18:42 PM,9.06,-0.49,-1.40,-0.02,-0.01,0.01
8:18:42 PM,9.22,-0.48,-1.33,0.02,-0.07,0.01
8:18:43 PM,9.18,-0.49,-1.29,0.05,-0.01,0.01
8:18:43 PM,9.11,-0.53,-1.26,0.02,-0.03,0.01
8:18:43 PM,8.17,-0.69,-1.86,-0.02,-0.00,0.01
8:18:43 PM,9.27,-0.65,-1.53,0.06,0.00,0.01
8:18:43 PM,9.34,-0.58,-1.59,0.06,0.01,0.01
8:18:43 PM,9.07,-0.57,-1.77,-0.04,-0.11,0.01
8:18:43 PM,9.05,-0.58,-1.53,0.01,-0.05,0.01
8:18:43 PM,9.00,-0.57,-1.62,0.03,0.09,0.01
8:18:43 PM,9.21,-0.58,-1.59,-0.00,0.01,0.01
8:18:43 PM,9.35,-0.59,-1.39,0.04,0.01,0.01
8:18:44 PM,9.10,-0.59,-1.44,-0.01,-0.03,0.01
8:18:44 PM,9.18,-0.52,-1.43,0.03,0.03,0.01
8:18:44 PM,10.11,-0.74,-1.10,0.13,0.14,0.01
8:18:44 PM,9.12,-0.52,-1.24,-0.06,-0.06,0.01
8:18:44 PM,9.74,-0.62,-1.06,0.01,-0.31,0.01
8:18:44 PM,9.05,-0.46,-1.13,0.01,-0.04,0.01
8:18:44 PM,8.91,-0.63,-1.14,0.04,-0.06,0.01
8:18:44 PM,9.18,-0.55,-1.34,0.04,0.00,0.01
8:18:44 PM,9.11,-0.48,-1.44,0.00,-0.01,0.01
8:18:45 PM,9.02,-0.49,-1.58,-0.04,-0.05,0.01
8:18:45 PM,9.02,-0.54,-1.43,0.00,-0.01,0.01
8:18:45 PM,9.07,-0.59,-1.19,0.00,-0.02,0.01
8:18:45 PM,9.05,-0.55,-1.27,0.04,-0.03,0.01
8:18:45 PM,9.06,-0.50,-1.45,0.02,-0.01,0.01
8:18:45 PM,9.12,-0.47,-1.56,0.03,0.06,0.01
8:18:45 PM,9.30,-0.53,-1.47,0.01,-0.03,0.01
8:18:45 PM,9.08,-0.44,-1.59,0.03,-0.03,0.01
8:18:45 PM,9.13,-0.51,-1.55,0.05,-0.00,0.01
8:18:46 PM,9.25,-0.47,-1.49,0.01,-0.01,0.01
8:18:46 PM,9.28,-0.47,-1.46,-0.02,-0.05,0.01
8:18:46 PM,9.17,-0.53,-1.55,0.00,-0.02,0.01
8:18:46 PM,8.99,-0.49,-1.45,0.01,-0.01,0.01
8:18:46 PM,9.21,-0.52,-1.43,0.00,0.03,0.01
8:18:46 PM,9.04,-0.52,-1.42,-0.02,-0.05,0.01
8:18:46 PM,9.11,-0.57,-1.36,-0.00,-0.01,0.01
8:18:46 PM,9.08,-0.53,-1.47,-0.01,-0.03,0.01
8:18:46 PM,9.11,-0.52,-1.44,-0.01,-0.01,0.01
8:18:46 PM,9.22,-0.52,-1.47,0.03,-0.05,0.01
8:18:47 PM,9.14,-0.43,-1.57,-0.00,-0.03,0.01
8:18:47 PM,9.25,-0.56,-1.46,0.03,-0.04,0.01
8:18:47 PM,9.15,-0.53,-1.35,0.05,0.00,0.01
8:18:47 PM,8.66,-0.85,-1.12,0.07,0.03,0.01
8:18:47 PM,8.99,-0.62,-1.46,0.04,0.03,0.01
8:18:47 PM,9.14,-0.52,-1.53,0.01,0.05,0.01
8:18:47 PM,8.97,-0.57,-1.75,0.06,0.08,0.01
8:18:47 PM,9.22,-0.57,-1.46,-0.03,0.00,0.01
8:18:47 PM,9.23,-0.43,-1.58,0.01,-0.07,0.01
8:18:48 PM,8.61,-0.67,-1.41,0.05,0.04,0.01
8:18:48 PM,9.27,-0.69,-1.27,0.03,0.00,0.01
8:18:48 PM,9.34,-0.60,-1.37,0.03,-0.04,0.01
8:18:48 PM,9.17,-0.57,-1.47,0.03,-0.04,0.01
8:18:48 PM,9.20,-0.59,-1.37,0.01,-0.05,0.01
8:18:48 PM,9.15,-0.50,-1.64,0.01,-0.01,0.01
8:18:48 PM,8.96,-0.57,-1.53,0.00,0.02,0.01
8:18:48 PM,9.25,-0.52,-1.60,0.00,0.05,0.01
8:18:48 PM,8.01,-0.47,-1.57,-0.02,-0.03,0.01
8:18:48 PM,9.36,-0.54,-1.51,0.05,-0.02,0.01
8:18:49 PM,9.27,-0.49,-1.55,0.01,-0.05,0.01
8:18:49 PM,9.29,-0.58,-1.42,0.00,-0.07,0.01
8:18:49 PM,9.01,-0.50,-1.71,0.03,-0.08,0.01
8:18:49 PM,9.07,-0.57,-1.41,0.00,-0.01,0.01
8:18:49 PM,8.99,-0.53,-1.54,-0.01,-0.01,0.01
8:18:49 PM,9.11,-0.46,-1.66,0.00,-0.04,0.01
8:18:49 PM,9.03,-0.50,-1.67,-0.02,0.06,0.01
8:18:49 PM,9.17,-0.53,-1.61,-0.00,0.02,0.01
8:18:49 PM,9.29,-0.55,-1.59,-0.04,-0.03,0.01
8:18:50 PM,9.20,-0.59,-1.46,-0.01,-0.02,0.01
8:18:50 PM,9.11,-0.51,-1.64,0.01,-0.02,0.01
8:18:50 PM,9.25,-0.49,-1.54,0.04,0.03,0.01
8:18:50 PM,9.35,-0.53,-1.42,0.05,-0.01,0.01
8:18:50 PM,9.33,-0.57,-1.54,-0.04,-0.07,0.01
8:18:50 PM,9.16,-0.52,-1.62,0.03,-0.01,0.01
8:18:50 PM,9.11,-0.46,-1.75,-0.02,0.01,0.01
8:18:50 PM,8.92,-0.41,-1.78,0.05,-0.04,0.01
8:18:50 PM,8.97,-0.51,-1.61,-0.03,-0.04,0.01
8:18:50 PM,9.06,-0.45,-1.68,0.02,-0.01,0.01
8:18:51 PM,8.92,-0.53,-1.58,-0.01,-0.06,0.01
8:18:51 PM,9.25,-0.45,-1.64,0.01,-0.02,0.01
8:18:51 PM,9.13,-0.55,-1.57,-0.01,0.01,0.01
8:18:51 PM,9.20,-0.50,-1.47,-0.00,-0.01,0.01
8:18:51 PM,9.18,-0.51,-1.55,0.01,-0.04,0.01
8:18:51 PM,9.15,-0.58,-1.44,0.01,0.00,0.01
8:18:51 PM,9.00,-0.49,-1.66,0.00,0.02,0.01
8:18:51 PM,9.01,-0.42,-1.62,-0.03,-0.01,0.01
8:18:51 PM,9.17,-0.46,-1.68,-0.03,-0.03,0.01
8:18:52 PM,8.97,-0.41,-1.75,-0.02,-0.04,0.01
8:18:52 PM,8.95,-0.46,-1.48,0.15,-0.05,0.01
8:18:52 PM,9.62,-0.49,-1.49,-0.07,0.03,0.01
8:18:52 PM,9.36,-0.46,-1.53,-0.04,-0.07,0.01
8:18:52 PM,9.12,-0.50,-1.53,-0.01,-0.01,0.01
8:18:52 PM,9.53,-0.74,-0.87,-0.10,-0.34,0.01
8:18:52 PM,8.79,-0.43,-1.79,-0.01,0.02,0.01
8:18:52 PM,9.22,-0.62,-1.47,0.01,-0.04,0.01
8:18:52 PM,9.20,-0.61,-1.38,0.02,-0.03,0.01
8:18:52 PM,9.28,-0.53,-1.64,-0.05,0.01,0.01
8:18:53 PM,9.27,-0.59,-1.36,0.01,-0.02,0.01
8:18:53 PM,9.15,-0.63,-1.29,-0.05,0.00,0.01
8:18:53 PM,9.09,-0.53,-1.64,-0.06,0.01,0.01
8:18:53 PM,9.19,-0.50,-1.73,0.02,-0.00,0.01
8:18:53 PM,9.14,-0.52,-1.55,0.00,-0.02,0.01
8:18:53 PM,9.19,-0.58,-1.57,-0.03,-0.05,0.01
8:18:53 PM,8.97,-0.51,-1.57,-0.03,-0.04,0.01
8:18:53 PM,9.22,-0.55,-1.45,0.02,-0.01,0.01
8:18:53 PM,9.14,-0.61,-1.43,0.00,-0.05,0.01
8:18:54 PM,9.05,-0.54,-1.61,0.02,-0.01,0.01
8:18:54 PM,9.11,-0.51,-1.58,0.02,0.01,0.01
8:18:54 PM,9.35,-0.56,-1.47,-0.01,-0.02,0.01
8:18:54 PM,9.22,-0.59,-1.50,-0.01,-0.09,0.01
8:18:54 PM,9.33,-0.58,-1.51,-0.06,-0.03,0.01
8:18:54 PM,9.09,-0.51,-1.61,-0.00,0.01,0.01
8:18:54 PM,9.36,-0.60,-1.43,0.01,0.05,0.01
8:18:54 PM,9.22,-0.58,-1.60,0.04,-0.01,0.01
8:18:54 PM,9.16,-0.51,-1.75,0.02,0.02,0.01
8:18:54 PM,9.27,-0.51,-1.56,0.02,-0.01,0.01
8:18:55 PM,9.32,-0.64,-1.41,0.02,-0.00,0.01
8:18:55 PM,9.17,-0.64,-1.48,0.01,-0.03,0.01
8:18:55 PM,9.20,-0.61,-1.48,-0.01,0.03,0.01
8:18:55 PM,9.06,-0.62,-1.50,-0.01,-0.02,0.01
8:18:55 PM,9.20,-0.57,-1.60,0.03,0.01,0.01
8:18:55 PM,9.22,-0.65,-1.36,0.01,-0.02,0.01
8:18:55 PM,9.01,-0.59,-1.50,0.03,-0.03,0.01
8:18:55 PM,9.20,-0.61,-1.48,0.05,-0.03,0.01
8:18:55 PM,9.17,-0.63,-1.42,0.04,-0.01,0.01
8:18:56 PM,9.11,-0.69,-1.40,0.01,-0.01,0.01
8:18:56 PM,9.33,-0.72,-1.32,0.08,0.01,0.01
8:18:56 PM,9.07,-0.70,-1.38,-0.01,-0.01,0.01
8:18:56 PM,9.24,-0.60,-1.48,0.12,-0.01,0.01
8:18:56 PM,9.39,-0.59,-1.56,-0.09,-0.05,0.01
8:18:56 PM,9.10,-0.58,-1.57,-0.03,-0.02,0.01
8:18:56 PM,9.11,-0.72,-1.24,0.02,-0.02,0.01
8:18:56 PM,9.11,-0.61,-1.58,-0.01,0.01,0.01
8:18:56 PM,9.25,-0.67,-1.48,0.02,0.00,0.01
8:18:56 PM,9.02,-0.72,-1.34,0.04,0.00,0.01
8:18:57 PM,9.25,-0.68,-1.43,0.04,0.04,0.01
8:18:57 PM,9.21,-0.62,-1.49,0.04,-0.02,0.01
8:18:57 PM,9.23,-0.61,-1.51,0.02,0.01,0.01
8:18:57 PM,9.03,-0.59,-1.32,0.04,0.05,0.01
8:18:57 PM,9.12,-0.62,-1.43,0.05,0.03,0.01
8:18:57 PM,9.38,-0.59,-1.43,0.01,0.04,0.01
8:18:57 PM,9.14,-0.69,-1.25,0.02,-0.06,0.01
8:18:57 PM,9.00,-0.61,-1.66,-0.00,-0.02,0.01
8:18:57 PM,9.40,-0.68,-1.50,0.02,-0.07,0.01
8:18:58 PM,8.99,-0.69,-1.52,0.03,-0.05,0.01
8:18:58 PM,9.32,-0.63,-1.58,-0.01,0.02,0.01
8:18:58 PM,9.15,-0.59,-1.65,-0.00,-0.05,0.01
8:18:58 PM,8.14,-1.10,-1.48,-0.01,-0.02,0.01
8:18:58 PM,9.90,-0.92,-1.40,0.01,0.08,0.01
8:18:58 PM,9.27,-0.81,-1.56,0.02,-0.05,0.01
8:18:58 PM,9.23,-0.68,-1.70,-0.02,0.01,0.01
8:18:58 PM,9.11,-0.67,-1.68,0.01,0.02,0.01
8:18:58 PM,9.06,-0.75,-1.57,-0.00,0.00,0.01
8:18:59 PM,9.18,-0.67,-1.53,0.02,0.00,0.01
8:18:59 PM,9.20,-0.71,-1.47,0.03,-0.01,0.01
8:18:59 PM,9.11,-0.71,-1.42,0.04,-0.00,0.01
8:18:59 PM,8.15,-0.46,-1.37,-0.08,-0.24,0.01
8:18:59 PM,9.15,-0.51,-1.72,-0.03,-0.06,0.01
8:18:59 PM,9.30,-0.47,-1.53,-0.04,-0.08,0.01
8:18:59 PM,9.20,-0.60,-1.44,0.01,-0.01,0.01
8:18:59 PM,9.18,-0.58,-1.40,0.01,-0.02,0.01
8:18:59 PM,9.29,-0.61,-1.46,0.01,-0.03,0.01
8:18:59 PM,9.34,-0.63,-1.33,0.09,-0.01,0.01
8:19:00 PM,9.21,-0.61,-1.30,0.02,0.01,0.01
8:19:00 PM,9.12,-0.52,-1.60,0.04,0.05,0.01
8:19:00 PM,9.12,-0.49,-1.78,-0.00,0.08,0.01
8:19:00 PM,9.20,-0.58,-1.49,0.00,-0.06,0.01
8:19:00 PM,9.00,-0.65,-1.23,-0.07,-0.01,0.01
8:19:00 PM,9.31,-0.61,-1.35,0.03,0.02,0.01
8:19:00 PM,9.24,-0.67,-1.27,0.03,-0.03,0.01
8:19:00 PM,9.15,-0.65,-1.25,0.01,-0.01,0.01
8:19:00 PM,9.06,-0.63,-1.20,0.05,0.02,0.01
8:19:01 PM,9.24,-0.61,-1.29,-0.01,0.02,0.01
8:19:01 PM,9.23,-0.60,-1.37,0.00,-0.01,0.01
8:19:01 PM,9.19,-0.61,-1.47,0.01,-0.03,0.01
8:19:01 PM,9.12,-0.51,-1.58,0.02,0.03,0.01
8:19:01 PM,9.13,-0.57,-1.54,0.01,0.00,0.01
8:19:01 PM,9.11,-0.61,-1.52,0.00,0.01,0.01
8:19:01 PM,9.10,-0.58,-1.41,-0.02,-0.05,0.01
8:19:01 PM,9.13,-0.58,-1.45,-0.03,-0.06,0.01
8:19:01 PM,9.14,-0.67,-1.32,0.02,-0.03,0.01
8:19:01 PM,9.17,-0.57,-1.48,-0.02,-0.01,0.01
8:19:02 PM,9.24,-0.68,-1.35,-0.00,0.01,0.01
8:19:02 PM,9.23,-0.65,-1.42,-0.09,0.02,0.01
8:19:02 PM,7.80,-0.51,-1.89,-0.02,0.07,0.01
8:19:02 PM,9.16,-0.57,-1.55,0.04,-0.02,0.01
8:19:02 PM,9.10,-0.63,-1.45,0.07,-0.06,0.01
8:19:02 PM,8.77,-0.34,-2.07,0.36,0.38,0.01
8:19:02 PM,9.49,-0.59,-1.30,-0.01,-0.09,0.01
8:19:02 PM,8.91,-0.60,-1.38,-0.01,-0.05,0.01
8:19:02 PM,9.11,-0.62,-1.24,-0.00,-0.07,0.01
8:19:03 PM,9.18,-0.55,-1.59,-0.02,-0.04,0.01
8:19:03 PM,9.00,-0.65,-1.38,0.00,-0.02,0.01
8:19:03 PM,8.99,-0.53,-1.53,0.03,0.06,0.01
8:19:03 PM,9.07,-0.57,-1.39,0.03,-0.03,0.01
8:19:03 PM,8.99,-0.62,-1.23,0.00,-0.04,0.01
8:19:03 PM,8.83,-0.61,-1.48,-0.01,-0.02,0.01
8:19:03 PM,9.01,-0.53,-1.44,-0.00,-0.02,0.01
8:19:03 PM,9.12,-0.57,-1.40,0.00,-0.01,0.01
8:19:03 PM,9.05,-0.57,-1.42,0.00,0.01,0.01
8:19:03 PM,9.15,-0.60,-1.46,-0.03,-0.01,0.01
8:19:04 PM,9.09,-0.56,-1.46,0.02,0.00,0.01
8:19:04 PM,9.11,-0.53,-1.52,-0.03,-0.05,0.01
8:19:04 PM,9.09,-0.64,-1.36,-0.03,-0.05,0.01
8:19:04 PM,9.34,-0.68,-1.21,-0.03,-0.07,0.01
8:19:04 PM,9.27,-0.72,-1.35,0.00,-0.02,0.01
8:19:04 PM,9.23,-0.69,-1.26,-0.01,-0.02,0.01
8:19:04 PM,9.27,-0.62,-1.47,0.01,0.00,0.01
8:19:04 PM,9.06,-0.62,-1.34,0.02,-0.03,0.01
8:19:04 PM,9.37,-0.81,-0.94,0.05,-0.08,0.01
8:19:05 PM,9.22,-0.68,-1.41,-0.02,0.04,0.01
8:19:05 PM,9.26,-0.73,-1.11,0.05,-0.03,0.01
8:19:05 PM,9.10,-0.62,-1.34,0.05,-0.01,0.01
8:19:05 PM,9.22,-0.59,-1.43,0.03,-0.02,0.01
8:19:05 PM,9.15,-0.62,-1.41,0.05,0.02,0.01
8:19:05 PM,9.19,-0.58,-1.34,0.04,-0.04,0.01
8:19:05 PM,9.15,-0.63,-1.35,0.06,-0.02,0.01
8:19:05 PM,8.96,-0.70,-1.16,0.03,-0.01,0.01
8:19:05 PM,9.26,-0.59,-1.35,0.09,-0.02,0.01
8:19:05 PM,9.13,-0.61,-1.47,0.03,-0.01,0.01
8:19:06 PM,9.09,-0.55,-1.45,0.04,-0.04,0.01
8:19:06 PM,9.09,-0.56,-1.54,0.00,-0.07,0.01
8:19:06 PM,9.11,-0.61,-1.54,-0.01,-0.00,0.01
8:19:06 PM,9.14,-0.53,-1.51,0.04,0.01,0.01
8:19:06 PM,9.15,-0.69,-1.31,-0.01,-0.00,0.01
8:19:06 PM,9.19,-0.63,-1.48,0.02,-0.05,0.01
8:19:06 PM,9.05,-0.55,-1.61,-0.03,0.03,0.01
8:19:06 PM,9.05,-0.59,-1.52,-0.02,-0.07,0.01
8:19:06 PM,8.94,-0.55,-1.60,-0.02,-0.03,0.01
8:19:07 PM,9.29,-0.62,-1.42,-0.06,-0.03,0.01
8:19:07 PM,9.06,-0.62,-1.32,-0.00,-0.04,0.01
8:19:07 PM,9.11,-0.61,-1.39,-0.01,0.01,0.01
8:19:07 PM,9.26,-0.69,-1.40,0.03,-0.04,0.01
8:19:07 PM,9.05,-0.55,-1.58,-0.02,-0.04,0.01
8:19:07 PM,9.07,-0.62,-1.36,0.03,-0.02,0.01
8:19:07 PM,9.11,-0.62,-1.47,-0.02,0.02,0.01
8:19:07 PM,9.20,-0.66,-1.44,0.00,-0.03,0.01
8:19:07 PM,9.14,-0.56,-1.66,0.02,-0.04,0.01
8:19:07 PM,9.06,-0.58,-1.50,-0.02,-0.06,0.01
8:19:08 PM,9.15,-0.58,-1.54,0.00,-0.03,0.01
8:19:08 PM,9.02,-0.60,-1.57,0.04,-0.01,0.01
8:19:08 PM,9.13,-0.69,-1.30,-0.01,-0.02,0.01
8:19:08 PM,9.32,-0.60,-1.69,0.03,0.02,0.01
8:19:08 PM,9.10,-0.68,-1.43,0.05,-0.04,0.01
8:19:08 PM,9.02,-0.69,-1.19,0.01,-0.02,0.01
8:19:08 PM,9.19,-0.61,-1.37,0.01,0.01,0.01
8:19:08 PM,9.05,-0.58,-1.53,0.01,0.03,0.01
8:19:08 PM,9.13,-0.65,-1.54,0.05,0.01,0.01
8:19:09 PM,9.08,-0.61,-1.28,0.00,-0.03,0.01
8:19:09 PM,9.13,-0.58,-1.56,-0.01,-0.02,0.01
8:19:09 PM,9.01,-0.63,-1.59,0.05,0.01,0.01
8:19:09 PM,9.04,-0.61,-1.47,0.03,0.01,0.01
8:19:09 PM,9.06,-0.72,-1.32,-0.01,-0.03,0.01
8:19:09 PM,9.12,-0.67,-1.35,-0.03,-0.04,0.01
8:19:09 PM,9.03,-0.64,-1.50,-0.01,-0.01,0.01
8:19:09 PM,9.20,-0.62,-1.51,0.02,0.02,0.01
8:19:09 PM,9.22,-0.64,-1.43,-0.02,-0.05,0.01
8:19:10 PM,9.19,-0.65,-1.37,0.01,-0.04,0.01
8:19:10 PM,9.18,-0.67,-1.38,0.01,-0.03,0.01
8:19:10 PM,9.02,-0.59,-1.51,0.01,0.01,0.01
8:19:10 PM,8.99,-0.52,-1.73,0.02,-0.01,0.01
8:19:10 PM,9.26,-0.72,-1.22,0.07,-0.07,0.01
8:19:10 PM,9.24,-0.64,-1.42,-0.03,-0.01,0.01
8:19:10 PM,8.98,-0.58,-1.76,-0.07,-0.05,0.01
8:19:10 PM,9.14,-0.58,-1.63,-0.01,-0.05,0.01
8:19:10 PM,9.89,-0.95,-1.45,0.05,0.34,0.01
8:19:10 PM,9.27,-0.74,-1.51,0.02,-0.12,0.01
8:19:11 PM,9.44,-0.76,-1.51,0.02,0.01,0.01
8:19:11 PM,9.23,-0.79,-1.28,0.05,-0.03,0.01
8:19:11 PM,9.11,-0.60,-1.64,0.03,-0.03,0.01
8:19:11 PM,9.07,-0.73,-1.33,0.01,-0.02,0.01
8:19:11 PM,9.10,-0.68,-1.34,-0.01,-0.01,0.01
8:19:11 PM,9.16,-0.60,-1.62,0.03,-0.01,0.01
8:19:11 PM,9.16,-0.67,-1.52,0.05,-0.04,0.01
8:19:11 PM,9.13,-0.68,-1.45,-0.00,-0.06,0.01
8:19:11 PM,9.10,-0.62,-1.53,0.02,-0.00,0.01
8:19:12 PM,9.11,-0.59,-1.54,-0.00,-0.02,0.01
8:19:12 PM,9.01,-0.59,-1.51,0.01,-0.02,0.01
8:19:12 PM,9.14,-0.59,-1.61,0.01,-0.01,0.01
8:19:12 PM,9.44,-0.67,-1.43,0.05,-0.03,0.01
8:19:12 PM,9.08,-0.59,-1.43,0.01,-0.05,0.01
8:19:12 PM,8.94,-0.54,-1.53,-0.02,-0.05,0.01
8:19:12 PM,8.82,-0.64,-1.30,0.05,-0.01,0.01
8:19:12 PM,9.17,-0.70,-1.30,0.08,0.06,0.01
8:19:12 PM,9.22,-0.57,-1.50,-0.04,0.03,0.01
8:19:12 PM,8.94,-0.50,-1.61,0.00,0.03,0.01
8:19:13 PM,9.17,-0.66,-1.38,-0.01,-0.02,0.01
8:19:13 PM,9.04,-0.66,-1.31,-0.03,-0.04,0.01
8:19:13 PM,9.11,-0.61,-1.49,-0.00,-0.01,0.01
8:19:13 PM,9.07,-0.61,-1.38,-0.00,-0.01,0.01
8:19:13 PM,9.19,-0.60,-1.36,0.06,-0.03,0.01
8:19:13 PM,9.14,-0.59,-1.48,0.01,-0.00,0.01
8:19:13 PM,8.95,-0.67,-1.35,0.02,-0.03,0.01
8:19:13 PM,9.12,-0.61,-1.57,0.00,-0.01,0.01
8:19:13 PM,9.27,-0.65,-1.39,0.02,-0.03,0.01
8:19:14 PM,9.22,-0.64,-1.50,-0.03,-0.05,0.01
8:19:14 PM,9.21,-0.60,-1.52,0.02,-0.05,0.01
8:19:14 PM,9.21,-0.65,-1.39,-0.01,-0.04,0.01
8:19:14 PM,9.06,-0.63,-1.46,-0.05,-0.01,0.01
8:19:14 PM,9.22,-0.67,-1.32,0.03,-0.05,0.01
8:19:14 PM,9.04,-0.74,-1.19,0.06,-0.00,0.01
8:19:14 PM,9.16,-0.78,-1.23,-0.04,-0.03,0.01
8:19:14 PM,9.30,-0.66,-1.32,0.04,0.01,0.01
8:19:14 PM,9.19,-0.70,-1.26,0.01,-0.02,0.01
8:19:14 PM,9.10,-0.65,-1.41,0.03,0.01,0.01
8:19:15 PM,9.08,-0.58,-1.47,0.00,0.02,0.01
8:19:15 PM,9.16,-0.60,-1.58,0.02,0.00,0.01
8:19:15 PM,9.09,-0.60,-1.52,0.04,0.04,0.01
8:19:15 PM,9.03,-0.60,-1.55,0.03,0.01,0.01
8:19:15 PM,9.19,-0.70,-1.29,0.01,-0.01,0.01
8:19:15 PM,8.89,-0.59,-1.54,-0.03,-0.03,0.01
8:19:15 PM,8.86,-0.57,-1.67,-0.01,0.01,0.01
8:19:15 PM,9.28,-0.67,-1.47,0.00,-0.04,0.01
8:19:15 PM,9.23,-0.62,-1.43,0.06,-0.03,0.01
8:19:16 PM,9.14,-0.66,-1.27,0.02,0.00,0.01
8:19:16 PM,9.26,-0.67,-1.37,0.03,-0.02,0.01
8:19:16 PM,9.24,-0.66,-1.41,0.01,-0.01,0.01
8:19:16 PM,9.03,-0.62,-1.43,-0.03,0.00,0.01
8:19:16 PM,9.08,-0.56,-1.58,-0.01,-0.06,0.01
8:19:16 PM,9.21,-0.64,-1.53,0.01,-0.06,0.01
8:19:16 PM,9.22,-0.68,-1.42,0.01,-0.02,0.01
8:19:16 PM,9.18,-0.66,-1.51,0.00,-0.02,0.01
8:19:16 PM,9.07,-0.63,-1.42,0.00,-0.00,0.01
8:19:16 PM,9.22,-0.63,-1.47,-0.03,-0.01,0.01
8:19:17 PM,9.10,-0.63,-1.58,-0.03,-0.05,0.01
8:19:17 PM,9.36,-0.70,-1.33,-0.00,0.02,0.01
8:19:17 PM,9.25,-0.68,-1.38,0.02,0.04,0.01
8:19:17 PM,9.23,-0.72,-1.27,0.02,-0.03,0.01
8:19:17 PM,9.19,-0.78,-1.05,0.04,-0.01,0.01
8:19:17 PM,9.10,-0.61,-1.44,0.04,0.02,0.01
8:19:17 PM,9.11,-0.57,-1.66,0.02,-0.01,0.01
8:19:17 PM,9.05,-0.61,-1.44,-0.01,-0.04,0.01
8:19:17 PM,8.98,-0.63,-1.46,0.01,-0.01,0.01
8:19:18 PM,9.14,-0.66,-1.43,-0.01,0.03,0.01
8:19:18 PM,9.16,-0.70,-1.43,0.01,-0.04,0.01
8:19:18 PM,9.23,-0.74,-1.35,0.01,-0.07,0.01
8:19:18 PM,8.92,-0.57,-1.59,-0.00,0.02,0.01
8:19:18 PM,9.21,-0.69,-1.33,0.07,-0.03,0.01
8:19:18 PM,9.00,-0.68,-1.47,0.02,0.08,0.01
8:19:19 PM,9.26,-0.63,-1.54,0.00,-0.01,0.01
8:19:19 PM,9.17,-0.68,-1.47,-0.02,-0.02,0.01
8:19:19 PM,9.31,-0.73,-1.29,0.02,-0.02,0.01
8:19:19 PM,9.05,-0.74,-1.37,0.04,0.00,0.01
8:19:19 PM,9.14,-0.75,-1.44,0.02,-0.00,0.01
8:19:19 PM,9.31,-0.63,-1.49,-0.00,-0.02,0.01
8:19:19 PM,9.05,-0.68,-1.55,0.02,0.01,0.01
8:19:19 PM,8.97,-0.66,-1.50,-0.02,0.01,0.01
8:19:19 PM,9.11,-0.67,-1.44,-0.02,-0.09,0.01
8:19:19 PM,9.29,-0.67,-1.31,-0.04,-0.03,0.01
8:19:19 PM,9.12,-0.75,-1.37,0.03,0.01,0.01
8:19:19 PM,9.14,-0.68,-1.43,0.03,0.02,0.01
8:19:19 PM,9.22,-0.66,-1.45,0.01,-0.05,0.01
8:19:20 PM,9.09,-0.66,-1.58,0.03,-0.04,0.01
8:19:20 PM,9.19,-0.73,-1.46,0.03,-0.03,0.01
8:19:20 PM,8.98,-0.69,-1.42,-0.01,-0.04,0.01
8:19:20 PM,9.12,-0.61,-1.37,0.01,-0.00,0.01
8:19:20 PM,9.08,-0.70,-1.45,0.00,0.01,0.01
8:19:20 PM,9.17,-0.67,-1.38,-0.00,-0.01,0.01
8:19:20 PM,9.12,-0.67,-1.26,-0.01,-0.07,0.01
8:19:20 PM,9.15,-0.72,-1.32,0.00,-0.00,0.01
8:19:20 PM,9.32,-0.74,-1.30,0.01,-0.01,0.01
8:19:21 PM,9.37,-0.77,-1.26,0.01,-0.07,0.01
8:19:21 PM,8.98,-0.64,-1.50,0.00,-0.01,0.01
8:19:21 PM,9.26,-0.69,-1.44,0.02,-0.04,0.01
8:19:21 PM,9.31,-0.79,-1.18,0.04,-0.05,0.01
8:19:21 PM,9.11,-0.69,-1.48,0.01,-0.01,0.01
8:19:21 PM,9.01,-0.70,-1.41,0.02,-0.03,0.01
8:19:21 PM,9.36,-0.77,-1.02,0.14,-0.06,0.01
8:19:21 PM,8.93,-0.67,-1.42,0.03,0.01,0.01
8:19:21 PM,8.88,-0.69,-1.40,0.05,0.01,0.01
8:19:21 PM,9.10,-0.59,-1.57,0.05,-0.03,0.01
8:19:22 PM,9.17,-0.62,-1.40,0.05,0.01,0.01
8:19:22 PM,9.05,-0.58,-1.54,-0.01,-0.02,0.01
8:19:22 PM,8.96,-0.63,-1.60,-0.03,-0.03,0.01
8:19:22 PM,9.29,-0.70,-1.30,-0.03,-0.04,0.01
8:19:22 PM,9.04,-0.67,-1.30,0.00,0.01,0.01
8:19:22 PM,9.22,-0.78,-1.06,0.04,-0.02,0.01
8:19:22 PM,9.09,-0.55,-1.41,0.04,0.02,0.01
8:19:22 PM,9.11,-0.63,-1.28,0.05,0.01,0.01
8:19:22 PM,9.22,-0.52,-1.52,-0.02,-0.08,0.01
8:19:23 PM,9.15,-0.66,-1.47,-0.03,-0.02,0.01
8:19:23 PM,9.27,-0.64,-1.55,0.02,-0.04,0.01
8:19:23 PM,9.15,-0.71,-1.59,0.03,-0.03,0.01
8:19:23 PM,9.30,-0.68,-1.20,0.00,-0.08,0.01
8:19:23 PM,9.01,-0.56,-1.49,-0.00,-0.03,0.01
8:19:23 PM,9.23,-0.60,-1.61,0.01,-0.00,0.01
8:19:23 PM,9.15,-0.54,-1.32,0.02,-0.04,0.01
8:19:23 PM,8.88,-0.63,-1.42,0.00,0.00,0.01
8:19:23 PM,9.14,-0.60,-1.51,0.05,0.01,0.01
8:19:23 PM,9.16,-0.59,-1.49,-0.03,-0.03,0.01
8:19:24 PM,9.31,-0.69,-1.51,-0.04,-0.03,0.01
8:19:24 PM,9.23,-0.69,-1.52,-0.01,-0.02,0.01
8:19:24 PM,9.24,-0.67,-1.35,-0.01,-0.05,0.01
8:19:24 PM,9.27,-0.60,-1.53,-0.00,-0.09,0.01
8:19:24 PM,9.28,-0.64,-1.34,0.04,0.01,0.01
8:19:24 PM,9.09,-0.63,-1.51,0.01,0.05,0.01
8:19:24 PM,9.06,-0.57,-1.55,-0.01,-0.00,0.01
8:19:24 PM,9.13,-0.66,-1.53,0.01,-0.01,0.01
8:19:24 PM,9.05,-0.66,-1.42,-0.00,-0.02,0.01
8:19:25 PM,9.12,-0.63,-1.56,0.01,-0.01,0.01
8:19:25 PM,9.10,-0.64,-1.59,-0.00,0.02,0.01
8:19:25 PM,9.31,-0.67,-1.58,-0.02,-0.02,0.01
8:19:25 PM,9.46,-0.76,-1.34,0.05,-0.03,0.01
8:19:25 PM,9.28,-0.77,-1.28,-0.01,-0.02,0.01
8:19:25 PM,8.99,-0.62,-1.52,0.00,0.02,0.01
8:19:25 PM,9.15,-0.65,-1.49,0.04,-0.02,0.01
8:19:25 PM,9.00,-0.60,-1.53,-0.01,0.02,0.01
8:19:25 PM,9.28,-0.60,-1.58,0.01,-0.03,0.01
8:19:25 PM,9.05,-0.66,-1.57,0.02,-0.00,0.01
8:19:26 PM,9.25,-0.59,-1.46,0.04,0.02,0.01
8:19:26 PM,9.14,-0.62,-1.51,-0.02,-0.04,0.01
8:19:26 PM,9.09,-0.66,-1.45,-0.01,-0.07,0.01
8:19:26 PM,9.20,-0.66,-1.32,0.01,-0.02,0.01
8:19:26 PM,9.32,-0.70,-1.35,0.05,-0.01,0.01
8:19:26 PM,9.09,-0.72,-1.46,0.03,0.01,0.01
8:19:26 PM,9.13,-0.58,-1.55,0.02,-0.00,0.01
8:19:26 PM,9.06,-0.69,-1.26,0.04,-0.03,0.01
8:19:26 PM,9.11,-0.63,-1.35,0.04,0.03,0.01
8:19:27 PM,9.19,-0.67,-1.33,-0.02,0.01,0.01
8:19:27 PM,9.07,-0.64,-1.52,0.01,-0.03,0.01
8:19:27 PM,9.05,-0.68,-1.36,0.01,-0.03,0.01
8:19:27 PM,9.05,-0.67,-1.43,0.01,0.04,0.01
8:19:27 PM,9.10,-0.61,-1.58,0.03,0.01,0.01
8:19:27 PM,9.05,-0.63,-1.48,-0.01,-0.06,0.01
8:19:27 PM,9.05,-0.65,-1.42,0.00,0.00,0.01
8:19:27 PM,9.01,-0.66,-1.37,-0.02,-0.01,0.01
8:19:27 PM,9.17,-0.65,-1.55,0.01,0.02,0.01
8:19:27 PM,9.23,-0.70,-1.49,-0.01,-0.04,0.01
8:19:28 PM,9.18,-0.65,-1.48,0.01,-0.03,0.01
8:19:28 PM,9.20,-0.70,-1.34,0.00,0.01,0.01
8:19:28 PM,9.27,-0.61,-1.44,0.04,-0.00,0.01
8:19:28 PM,9.09,-0.66,-1.47,-0.02,-0.04,0.01
8:19:28 PM,8.97,-0.71,-1.32,0.02,-0.03,0.01
8:19:28 PM,9.14,-0.69,-1.42,0.02,-0.00,0.01
8:19:28 PM,9.13,-0.65,-1.47,-0.01,-0.01,0.01
8:19:28 PM,9.12,-0.65,-1.41,0.03,0.00,0.01
8:19:28 PM,9.15,-0.65,-1.47,-0.00,-0.04,0.01
8:19:29 PM,9.10,-0.68,-1.55,0.02,-0.03,0.01
8:19:29 PM,9.11,-0.65,-1.50,-0.00,-0.00,0.01
8:19:29 PM,9.35,-0.68,-1.40,-0.02,-0.07,0.01
8:19:29 PM,9.10,-0.61,-1.45,0.02,0.02,0.01
8:19:29 PM,9.11,-0.71,-1.35,0.01,0.02,0.01
8:19:29 PM,9.00,-0.62,-1.47,0.00,0.01,0.01
8:19:29 PM,9.09,-0.67,-1.41,-0.01,-0.00,0.01
8:19:29 PM,9.18,-0.60,-1.45,-0.03,-0.06,0.01
8:19:29 PM,9.03,-0.66,-1.37,-0.01,-0.04,0.01
8:19:29 PM,9.09,-0.67,-1.41,0.00,0.01,0.01
8:19:30 PM,9.27,-0.73,-1.26,-0.01,-0.01,0.01
8:19:30 PM,9.11,-0.72,-1.25,-0.00,-0.04,0.01
8:19:30 PM,9.10,-0.70,-1.34,0.01,-0.06,0.01
8:19:30 PM,9.15,-0.68,-1.27,0.03,-0.03,0.01
8:19:30 PM,9.16,-0.66,-1.41,0.00,-0.05,0.01
8:19:30 PM,9.05,-0.66,-1.53,0.01,0.02,0.01
8:19:30 PM,9.34,-0.73,-1.42,0.03,-0.02,0.01
8:19:30 PM,9.11,-0.63,-1.57,0.00,-0.07,0.01
8:19:30 PM,9.03,-0.59,-1.38,-0.04,-0.09,0.01
8:19:31 PM,8.77,-0.51,-1.63,0.02,0.04,0.01
8:19:31 PM,9.19,-0.62,-1.45,0.02,-0.01,0.01
8:19:31 PM,9.14,-0.61,-1.55,0.01,-0.03,0.01
8:19:31 PM,9.20,-0.59,-1.58,0.02,-0.01,0.01
8:19:31 PM,9.22,-0.68,-1.36,0.02,-0.03,0.01
8:19:31 PM,9.04,-0.62,-1.41,-0.01,-0.03,0.01
8:19:31 PM,9.23,-0.65,-1.36,-0.02,-0.01,0.01
8:19:31 PM,9.21,-0.64,-1.53,0.01,-0.01,0.01
8:19:31 PM,9.32,-0.66,-1.48,0.01,-0.05,0.01
8:19:31 PM,8.97,-0.58,-1.64,0.01,0.04,0.01
8:19:32 PM,9.14,-0.62,-1.56,-0.00,0.01,0.01
8:19:32 PM,9.29,-0.68,-1.35,-0.02,-0.04,0.01
8:19:32 PM,9.20,-0.57,-1.50,-0.02,-0.02,0.01
8:19:32 PM,9.27,-0.67,-1.41,0.03,-0.04,0.01
8:19:32 PM,9.05,-0.66,-1.45,-0.01,-0.03,0.01
8:19:32 PM,9.04,-0.64,-1.53,0.00,-0.03,0.01
8:19:32 PM,9.38,-0.66,-1.50,0.02,-0.01,0.01
8:19:32 PM,9.10,-0.60,-1.55,0.02,0.00,0.01
8:19:32 PM,9.24,-0.66,-1.32,0.02,-0.01,0.01
8:19:33 PM,9.31,-0.65,-1.45,-0.00,-0.02,0.01
8:19:33 PM,9.21,-0.71,-1.36,0.00,-0.01,0.01
8:19:33 PM,9.20,-0.70,-1.39,0.03,-0.04,0.01
8:19:33 PM,9.23,-0.70,-1.36,0.03,-0.00,0.01
8:19:33 PM,9.19,-0.63,-1.51,0.00,-0.02,0.01
8:19:33 PM,9.17,-0.62,-1.54,0.01,-0.00,0.01
8:19:33 PM,9.12,-0.64,-1.64,0.01,-0.02,0.01
8:19:33 PM,8.98,-0.72,-1.38,0.03,0.00,0.01
8:19:33 PM,8.95,-0.62,-1.53,-0.00,0.01,0.01
8:19:34 PM,9.27,-0.72,-1.49,-0.01,-0.01,0.01
8:19:34 PM,9.06,-0.61,-1.63,0.01,-0.01,0.01
8:19:34 PM,9.30,-0.61,-1.47,0.01,-0.02,0.01
8:19:34 PM,9.19,-0.72,-1.46,0.01,-0.06,0.01
8:19:34 PM,9.02,-0.68,-1.43,0.03,-0.04,0.01
8:19:34 PM,9.06,-0.63,-1.54,0.02,0.01,0.01
8:19:34 PM,9.28,-0.61,-1.53,0.03,0.02,0.01
8:19:34 PM,8.94,-0.68,-1.48,-0.01,-0.01,0.01
8:19:34 PM,9.09,-0.59,-1.51,0.01,0.00,0.01
8:19:34 PM,9.20,-0.63,-1.53,0.03,0.00,0.01
8:19:35 PM,9.19,-0.67,-1.50,0.02,-0.00,0.01
8:19:35 PM,9.15,-0.60,-1.54,0.01,0.00,0.01
8:19:35 PM,9.11,-0.62,-1.62,-0.00,-0.01,0.01
8:19:35 PM,9.30,-0.64,-1.57,-0.02,-0.06,0.01
8:19:35 PM,9.15,-0.75,-1.09,0.01,-0.03,0.01
8:19:35 PM,9.02,-0.74,-1.30,-0.01,-0.02,0.01
8:19:35 PM,9.17,-0.68,-1.55,-0.00,-0.03,0.01
8:19:35 PM,9.19,-0.73,-1.39,-0.01,-0.03,0.01
8:19:35 PM,9.20,-0.66,-1.54,0.01,-0.01,0.01
8:19:36 PM,9.05,-0.57,-1.67,0.05,-0.01,0.01
8:19:36 PM,9.14,-0.61,-1.63,-0.03,-0.08,0.01
8:19:36 PM,9.09,-0.64,-1.60,-0.01,-0.02,0.01
8:19:36 PM,9.17,-0.60,-1.67,0.01,-0.04,0.01
8:19:36 PM,9.06,-0.69,-1.62,-0.01,-0.03,0.01
8:19:36 PM,9.08,-0.66,-1.58,0.01,-0.01,0.01
8:19:36 PM,9.20,-0.64,-1.47,0.04,-0.01,0.01
8:19:36 PM,9.02,-0.68,-1.50,-0.00,-0.00,0.01
8:19:36 PM,8.96,-0.66,-1.42,0.02,0.02,0.01
8:19:36 PM,9.06,-0.68,-1.50,0.01,0.00,0.01
8:19:37 PM,9.10,-0.62,-1.63,-0.02,-0.01,0.01
8:19:37 PM,9.34,-0.75,-1.30,0.01,-0.01,0.01
8:19:37 PM,9.05,-0.78,-1.45,-0.00,-0.03,0.01
8:19:37 PM,9.18,-0.67,-1.54,0.01,-0.00,0.01
8:19:37 PM,9.07,-0.70,-1.44,0.02,0.01,0.01
8:19:37 PM,9.07,-0.65,-1.49,0.01,-0.02,0.01
8:19:37 PM,9.14,-0.72,-1.43,0.02,-0.02,0.01
8:19:37 PM,9.11,-0.74,-1.31,0.03,-0.04,0.01
8:19:37 PM,9.07,-0.69,-1.53,0.03,-0.01,0.01
8:19:38 PM,9.17,-0.68,-1.48,0.02,0.02,0.01
8:19:38 PM,9.23,-0.71,-1.42,0.02,-0.04,0.01
8:19:38 PM,9.06,-0.64,-1.48,-0.01,-0.03,0.01
8:19:38 PM,8.87,-0.62,-1.52,0.00,-0.01,0.01
8:19:38 PM,9.18,-0.69,-1.62,-0.03,-0.02,0.01
8:19:38 PM,9.22,-0.66,-1.64,-0.02,-0.03,0.01
8:19:38 PM,9.04,-0.63,-1.62,0.00,0.01,0.01
8:19:38 PM,9.10,-0.72,-1.37,0.05,-0.01,0.01
8:19:38 PM,9.09,-0.68,-1.59,0.04,0.01,0.01
8:19:38 PM,9.09,-0.66,-1.62,0.03,-0.02,0.01
8:19:39 PM,9.11,-0.66,-1.65,-0.01,0.01,0.01
8:19:39 PM,9.10,-0.73,-1.40,0.02,0.02,0.01
8:19:39 PM,9.08,-0.67,-1.66,-0.02,0.02,0.01
8:19:39 PM,9.13,-0.74,-1.47,-0.01,0.02,0.01
8:19:39 PM,9.17,-0.72,-1.55,0.02,-0.03,0.01
8:19:39 PM,8.98,-0.57,-1.84,0.05,-0.04,0.01
8:19:39 PM,8.99,-0.63,-1.56,0.03,0.00,0.01
8:19:39 PM,9.22,-0.78,-1.43,0.05,-0.01,0.01
8:19:39 PM,9.15,-0.70,-1.50,-0.02,-0.02,0.01
8:19:40 PM,9.09,-0.68,-1.64,0.02,0.01,0.01
8:19:40 PM,9.27,-0.77,-1.41,0.02,-0.01,0.01
8:19:40 PM,9.17,-0.67,-1.70,0.03,0.00,0.01
8:19:40 PM,9.45,-0.83,-1.32,-0.01,-0.08,0.01
8:19:40 PM,9.13,-0.70,-1.50,-0.01,0.00,0.01
8:19:40 PM,9.19,-0.64,-1.58,-0.03,-0.01,0.01
8:19:40 PM,9.21,-0.71,-1.60,-0.02,-0.05,0.01
8:19:40 PM,9.35,-0.73,-1.51,0.01,-0.05,0.01
8:19:40 PM,9.30,-0.73,-1.46,-0.01,-0.03,0.01
8:19:40 PM,9.15,-0.79,-1.27,0.01,-0.02,0.01
8:19:41 PM,9.31,-0.77,-1.48,0.03,0.03,0.01
8:19:41 PM,8.98,-0.67,-1.71,0.06,0.02,0.01
8:19:41 PM,9.18,-0.71,-1.53,0.03,0.00,0.01
8:19:41 PM,9.13,-0.67,-1.60,0.04,0.02,0.01
8:19:41 PM,9.18,-0.73,-1.39,0.01,-0.04,0.01
8:19:41 PM,9.13,-0.78,-1.37,-0.00,0.00,0.01
8:19:41 PM,9.11,-0.70,-1.37,-0.01,-0.04,0.01
8:19:41 PM,9.13,-0.71,-1.49,-0.00,-0.03,0.01
8:19:41 PM,9.07,-0.64,-1.67,0.00,-0.01,0.01
8:19:42 PM,9.11,-0.72,-1.48,0.00,-0.01,0.01
8:19:42 PM,9.32,-0.71,-1.50,0.05,0.01,0.01
8:19:42 PM,9.06,-0.63,-1.66,0.01,0.02,0.01
8:19:42 PM,9.21,-0.75,-1.41,0.08,0.05,0.01
8:19:42 PM,9.22,-0.81,-1.20,0.03,-0.02,0.01
8:19:42 PM,8.80,-0.72,-1.61,0.01,0.04,0.01
8:19:42 PM,9.08,-0.61,-1.75,0.07,-0.02,0.01
8:19:42 PM,9.11,-0.73,-1.73,-0.02,0.02,0.01
8:19:42 PM,9.22,-0.80,-1.43,0.00,-0.07,0.01
8:19:42 PM,9.30,-0.84,-1.53,-0.02,-0.04,0.01
8:19:43 PM,9.09,-0.77,-1.64,-0.01,-0.03,0.01
8:19:43 PM,9.10,-0.76,-1.64,-0.02,-0.01,0.01
8:19:43 PM,8.97,-0.74,-1.58,-0.04,-0.04,0.01
8:19:43 PM,9.00,-0.74,-1.59,-0.01,0.10,0.01
8:19:43 PM,9.03,-0.72,-1.69,-0.02,0.01,0.01
8:19:43 PM,8.94,-0.66,-1.75,-0.03,0.00,0.01
8:19:43 PM,9.00,-0.68,-1.83,-0.01,-0.04,0.01
8:19:43 PM,9.37,-0.82,-1.31,0.05,-0.03,0.01
8:19:43 PM,9.36,-0.96,-1.16,0.01,-0.02,0.01
8:19:44 PM,9.16,-0.82,-1.46,0.07,-0.00,0.01
8:19:44 PM,9.08,-0.76,-1.66,0.03,0.01,0.01
8:19:44 PM,8.96,-0.78,-1.55,0.01,-0.02,0.01
8:19:44 PM,9.05,-0.78,-1.50,0.00,0.01,0.01
8:19:44 PM,9.17,-0.74,-1.66,0.01,-0.00,0.01
8:19:44 PM,9.43,-0.82,-1.49,0.02,-0.07,0.01
8:19:44 PM,9.17,-0.76,-1.70,-0.06,-0.07,0.01
8:19:44 PM,9.28,-0.79,-1.42,0.01,-0.07,0.01
8:19:44 PM,9.17,-0.79,-1.57,0.02,0.04,0.01
8:19:44 PM,9.18,-0.87,-1.48,-0.02,-0.03,0.01
8:19:45 PM,9.23,-0.78,-1.68,0.02,-0.04,0.01
8:19:45 PM,9.04,-0.67,-1.68,0.00,-0.01,0.01
8:19:45 PM,9.16,-0.68,-1.64,0.04,-0.05,0.01
8:19:45 PM,9.15,-0.79,-1.61,0.01,-0.04,0.01
8:19:45 PM,9.22,-0.78,-1.61,0.03,-0.05,0.01
8:19:45 PM,8.97,-0.70,-1.70,-0.02,0.02,0.01
8:19:45 PM,9.18,-0.66,-1.66,-0.00,-0.04,0.01
8:19:45 PM,8.82,-0.66,-1.60,-0.02,-0.04,0.01
8:19:45 PM,9.03,-0.79,-1.51,0.02,-0.03,0.01
8:19:46 PM,9.21,-0.80,-1.50,0.01,-0.02,0.01
8:19:46 PM,9.11,-0.72,-1.75,0.04,-0.02,0.01
8:19:46 PM,9.14,-0.79,-1.43,0.02,-0.04,0.01
8:19:46 PM,9.42,-0.85,-1.44,0.02,-0.06,0.01
8:19:46 PM,9.15,-0.82,-1.45,0.04,-0.02,0.01
8:19:46 PM,9.11,-0.78,-1.55,0.03,0.01,0.01
8:19:46 PM,9.28,-0.85,-1.59,0.03,0.03,0.01
8:19:46 PM,9.21,-0.88,-1.42,0.03,-0.02,0.01
8:19:46 PM,9.22,-0.74,-1.70,0.02,0.01,0.01
8:19:47 PM,9.07,-0.72,-1.64,0.01,-0.01,0.01
8:19:47 PM,9.23,-0.80,-1.73,0.01,-0.01,0.01
8:19:47 PM,9.22,-0.77,-1.69,-0.02,-0.04,0.01
8:19:47 PM,9.13,-0.70,-1.70,-0.01,-0.03,0.01
8:19:47 PM,9.28,-0.83,-1.60,-0.00,-0.01,0.01
8:19:47 PM,9.14,-0.77,-1.68,-0.03,0.01,0.01
8:19:47 PM,9.26,-0.73,-1.60,-0.02,0.01,0.01
8:19:47 PM,9.13,-0.69,-1.83,-0.02,-0.04,0.01
8:19:47 PM,9.09,-0.71,-1.83,0.03,0.02,0.01
8:19:47 PM,9.12,-0.78,-1.64,0.04,0.01,0.01
8:19:48 PM,9.24,-0.81,-1.58,0.02,-0.05,0.01
8:19:48 PM,9.30,-0.77,-1.65,-0.03,-0.03,0.01
8:19:48 PM,9.06,-0.76,-1.64,-0.00,-0.10,0.01
8:19:48 PM,8.94,-0.76,-1.68,-0.00,-0.01,0.01
8:19:48 PM,8.93,-0.75,-1.75,0.02,0.06,0.01
8:19:48 PM,9.21,-0.82,-1.61,-0.01,-0.02,0.01
8:19:48 PM,9.22,-0.74,-1.85,0.02,0.00,0.01
8:19:48 PM,9.07,-0.80,-1.67,0.08,-0.01,0.01
8:19:48 PM,9.05,-0.79,-1.62,0.02,-0.00,0.01
8:19:49 PM,9.14,-0.83,-1.61,0.02,-0.02,0.01
8:19:49 PM,9.27,-0.80,-1.69,0.04,-0.01,0.01
8:19:49 PM,8.98,-0.80,-1.60,-0.00,-0.02,0.01
8:19:49 PM,9.07,-0.79,-1.64,-0.00,-0.02,0.01
8:19:49 PM,9.14,-0.79,-1.80,0.03,-0.01,0.01
8:19:49 PM,9.11,-0.87,-1.51,0.02,-0.04,0.01
8:19:49 PM,9.21,-0.84,-1.39,0.05,0.04,0.01
8:19:49 PM,9.17,-0.86,-1.45,0.05,0.00,0.01
8:19:49 PM,9.18,-0.83,-1.68,0.05,0.03,0.01
8:19:49 PM,9.31,-0.92,-1.31,0.07,-0.05,0.01
8:19:50 PM,9.34,-0.86,-1.46,0.09,-0.05,0.01
8:19:50 PM,9.07,-0.77,-1.76,0.03,0.03,0.01
8:19:50 PM,8.60,-0.67,-2.00,0.03,0.13,0.01
8:19:50 PM,9.11,-0.81,-1.64,-0.00,-0.01,0.01
8:19:50 PM,9.06,-0.70,-1.74,0.02,0.05,0.01
8:19:50 PM,9.28,-0.80,-1.54,0.02,-0.05,0.01
8:19:50 PM,9.08,-0.79,-1.70,0.02,-0.03,0.01
8:19:50 PM,9.14,-0.90,-1.48,0.02,-0.06,0.01
8:19:50 PM,9.07,-0.83,-1.60,-0.01,-0.04,0.01
8:19:51 PM,9.23,-0.87,-1.59,0.03,0.05,0.01
8:19:51 PM,9.04,-0.79,-1.65,-0.00,0.02,0.01
8:19:51 PM,9.02,-0.81,-1.53,-0.01,0.01,0.01
8:19:51 PM,9.16,-0.81,-1.71,-0.04,-0.03,0.01
8:19:51 PM,9.23,-0.79,-1.79,0.00,-0.01,0.01
8:19:51 PM,9.13,-0.81,-1.62,0.00,-0.04,0.01
8:19:51 PM,9.11,-0.83,-1.59,0.02,-0.01,0.01
8:19:51 PM,9.04,-0.73,-1.69,-0.02,-0.01,0.01
8:19:51 PM,8.94,-0.79,-1.64,-0.03,-0.00,0.01
8:19:51 PM,8.95,-0.78,-1.71,0.01,-0.00,0.01
8:19:52 PM,9.22,-0.79,-1.73,0.01,-0.03,0.01
8:19:52 PM,9.05,-0.78,-1.75,0.00,-0.02,0.01
8:19:52 PM,8.93,-0.72,-1.82,0.00,0.03,0.01
8:19:52 PM,9.17,-0.78,-1.55,-0.01,-0.04,0.01
8:19:52 PM,9.08,-0.74,-1.69,-0.01,-0.01,0.01
8:19:52 PM,9.11,-0.81,-1.50,0.02,-0.05,0.01
8:19:52 PM,9.16,-0.79,-1.47,0.01,-0.03,0.01
8:19:52 PM,9.18,-0.90,-1.52,-0.02,0.01,0.01
8:19:52 PM,9.08,-0.76,-1.79,-0.03,-0.02,0.01
8:19:53 PM,9.02,-0.76,-1.71,-0.05,-0.04,0.01
8:19:53 PM,8.90,-0.78,-1.78,-0.02,-0.01,0.01
8:19:53 PM,9.14,-0.83,-1.73,-0.00,0.08,0.01
8:19:53 PM,9.24,-0.98,-1.33,-0.02,-0.04,0.01
8:19:53 PM,9.11,-0.83,-1.68,0.01,0.01,0.01
8:19:53 PM,9.03,-0.84,-1.65,0.00,-0.03,0.01
8:19:53 PM,9.08,-0.81,-1.56,-0.00,-0.02,0.01
8:19:53 PM,9.17,-0.81,-1.70,-0.01,0.00,0.01
8:19:53 PM,9.24,-0.83,-1.66,-0.01,-0.04,0.01
8:19:53 PM,9.07,-0.77,-1.81,-0.00,-0.01,0.01
8:19:54 PM,9.21,-0.80,-1.66,0.01,-0.03,0.01
8:19:54 PM,9.29,-0.83,-1.45,0.00,-0.04,0.01
8:19:54 PM,9.01,-0.83,-1.48,-0.09,0.01,0.01
8:19:54 PM,9.09,-0.78,-1.75,-0.06,-0.02,0.01
8:19:54 PM,8.97,-0.70,-1.96,-0.02,-0.03,0.01
8:19:54 PM,9.00,-0.76,-1.77,-0.03,-0.01,0.01
8:19:54 PM,9.19,-0.80,-1.60,0.01,-0.02,0.01
8:19:54 PM,9.27,-0.87,-1.48,0.06,-0.02,0.01
8:19:54 PM,9.09,-0.70,-1.75,-0.00,-0.01,0.01
8:19:55 PM,9.03,-0.74,-1.82,-0.04,-0.04,0.01
8:19:55 PM,8.90,-0.76,-1.67,0.00,-0.00,0.01
8:19:55 PM,9.00,-0.74,-1.61,-0.03,-0.02,0.01
8:19:55 PM,9.17,-0.83,-1.49,0.06,-0.05,0.01
8:20:03 PM,9.11,-0.81,-1.67,0.06,0.01,0.01
8:20:03 PM,9.19,-0.86,-1.58,0.04,-0.00,0.01
8:20:03 PM,9.05,-0.75,-1.70,-0.00,0.04,0.01
8:20:03 PM,9.11,-0.79,-1.69,-0.00,-0.03,0.01
8:20:03 PM,8.97,-0.73,-1.86,0.06,0.02,0.01
8:20:03 PM,9.00,-0.83,-1.46,0.03,0.02,0.01
8:20:03 PM,9.06,-0.81,-1.57,-0.01,-0.00,0.01
8:20:03 PM,9.09,-0.83,-1.58,0.02,-0.01,0.01
8:20:03 PM,9.08,-0.78,-1.64,0.04,0.00,0.01
8:20:03 PM,9.04,-0.82,-1.75,-0.03,-0.01,0.01
8:20:03 PM,9.18,-0.73,-1.66,0.01,-0.01,0.01
8:20:04 PM,9.11,-0.69,-1.72,-0.02,0.01,0.01
8:20:04 PM,9.31,-0.82,-1.54,0.02,-0.05,0.01
8:20:04 PM,9.24,-0.95,-1.39,-0.01,-0.02,0.01
8:20:04 PM,9.17,-0.91,-1.63,-0.00,0.00,0.01
8:20:04 PM,9.03,-0.89,-1.51,-0.02,-0.06,0.01
8:20:04 PM,8.98,-0.86,-1.68,0.02,-0.00,0.01
8:20:04 PM,9.02,-0.85,-1.55,0.00,-0.02,0.01
8:20:04 PM,8.96,-0.89,-1.55,-0.01,0.03,0.01
8:20:04 PM,9.27,-0.91,-1.52,-0.01,-0.00,0.01
8:20:05 PM,9.12,-0.84,-1.50,-0.00,-0.02,0.01
8:20:05 PM,9.17,-0.84,-1.63,0.05,0.02,0.01
8:20:05 PM,9.08,-0.85,-1.64,0.06,-0.01,0.01
8:20:05 PM,9.32,-0.84,-1.61,-0.05,-0.00,0.01
8:20:05 PM,9.07,-0.78,-1.79,-0.04,-0.07,0.01
8:20:05 PM,9.07,-0.76,-1.78,-0.04,-0.04,0.01
8:20:05 PM,9.13,-0.82,-1.77,0.02,-0.01,0.01
8:20:05 PM,9.08,-0.75,-1.79,-0.00,-0.06,0.01
8:20:05 PM,8.99,-0.74,-1.67,0.08,-0.01,0.01
8:20:06 PM,8.89,-0.71,-1.87,-0.03,-0.03,0.01
8:20:06 PM,9.07,-0.74,-1.69,0.00,-0.02,0.01
8:20:06 PM,9.06,-0.84,-1.56,-0.02,-0.01,0.01
8:20:06 PM,9.30,-0.91,-1.55,0.04,0.01,0.01
8:20:06 PM,9.21,-0.94,-1.47,-0.05,-0.03,0.01
8:20:06 PM,9.13,-0.85,-1.50,-0.03,-0.03,0.01
8:20:06 PM,9.09,-0.84,-1.60,-0.05,-0.01,0.01
8:20:06 PM,9.22,-0.78,-1.66,0.02,-0.02,0.01
8:20:06 PM,9.28,-0.90,-1.40,-0.05,-0.01,0.01
8:20:06 PM,9.17,-0.83,-1.56,-0.03,-0.08,0.01
8:20:07 PM,9.14,-0.85,-1.60,0.01,-0.02,0.01
8:20:07 PM,9.20,-0.79,-1.56,-0.02,-0.03,0.01
8:20:07 PM,9.20,-0.86,-1.58,0.01,-0.03,0.01
8:20:07 PM,9.25,-0.74,-1.60,0.02,-0.07,0.01
8:20:07 PM,9.01,-0.79,-1.69,0.00,-0.01,0.01
8:20:07 PM,8.98,-0.84,-1.43,0.01,-0.02,0.01
8:20:07 PM,9.08,-0.76,-1.67,0.02,0.00,0.01
8:20:07 PM,9.22,-0.85,-1.51,0.04,-0.04,0.01
8:20:07 PM,9.12,-0.85,-1.44,0.05,-0.03,0.01
8:20:07 PM,9.19,-0.80,-1.52,0.03,-0.05,0.01
8:20:08 PM,9.14,-0.82,-1.75,0.04,-0.02,0.01
8:20:08 PM,9.08,-0.77,-1.78,0.03,0.04,0.01
8:20:08 PM,9.21,-0.84,-1.58,0.04,0.02,0.01
8:20:08 PM,9.21,-0.90,-1.60,0.03,0.04,0.01
8:20:08 PM,9.18,-0.84,-1.51,0.07,-0.01,0.01
8:20:08 PM,9.21,-0.85,-1.69,0.03,0.02,0.01
8:20:08 PM,9.10,-0.81,-1.79,-0.02,0.01,0.01
8:20:08 PM,9.07,-0.86,-1.70,0.01,-0.04,0.01
8:20:08 PM,8.87,-0.79,-1.60,0.01,0.00,0.01
8:20:09 PM,9.02,-0.86,-1.70,-0.00,-0.01,0.01
8:20:09 PM,9.16,-0.80,-1.57,-0.03,-0.03,0.01
8:20:09 PM,8.94,-0.70,-1.81,-0.04,-0.01,0.01
8:20:09 PM,8.92,-0.68,-1.76,-0.02,-0.05,0.01
8:20:09 PM,8.94,-0.67,-1.64,0.04,-0.03,0.01
8:20:09 PM,9.22,-0.74,-1.44,0.09,-0.09,0.01
8:20:09 PM,9.17,-0.78,-1.96,-0.01,-0.02,0.01
8:20:09 PM,9.01,-0.85,-1.80,0.01,0.00,0.01
8:20:09 PM,8.85,-0.84,-1.83,-0.00,-0.05,0.01
8:20:09 PM,8.86,-0.77,-1.87,-0.02,0.03,0.01
8:20:10 PM,8.89,-0.82,-1.71,-0.02,0.03,0.01
8:20:10 PM,9.12,-0.82,-1.61,-0.01,0.00,0.01
8:20:10 PM,9.25,-0.98,-1.43,0.03,-0.02,0.01
8:20:10 PM,9.28,-0.97,-1.34,0.05,-0.03,0.01
8:20:10 PM,9.07,-1.10,-1.17,0.03,-0.01,0.01
8:20:10 PM,9.13,-0.92,-1.36,0.06,-0.06,0.01
8:20:10 PM,9.09,-0.85,-1.64,0.07,0.02,0.01
8:20:10 PM,9.08,-0.85,-1.67,0.04,0.03,0.01
8:20:10 PM,8.76,-0.76,-1.77,-0.00,0.02,0.01
8:20:11 PM,9.10,-0.90,-1.61,0.03,-0.02,0.01
8:20:11 PM,9.05,-0.82,-1.72,0.02,-0.01,0.01
8:20:11 PM,9.01,-0.87,-1.60,0.03,0.03,0.01
8:20:11 PM,8.97,-0.76,-1.68,-0.02,0.02,0.01
8:20:11 PM,8.99,-0.83,-1.80,0.01,-0.03,0.01
8:20:11 PM,8.97,-0.90,-1.58,-0.02,-0.04,0.01
8:20:11 PM,9.20,-0.96,-1.71,-0.02,0.01,0.01
8:20:11 PM,9.17,-0.88,-1.57,0.01,-0.05,0.01
8:20:11 PM,9.35,-1.00,-1.39,0.06,0.01,0.01
8:20:11 PM,9.34,-0.97,-1.46,0.03,0.01,0.01
8:20:12 PM,9.16,-0.85,-1.56,-0.01,-0.02,0.01
8:20:12 PM,9.15,-0.92,-1.36,-0.04,-0.02,0.01
8:20:12 PM,9.17,-0.78,-1.50,0.02,-0.00,0.01
8:20:12 PM,8.98,-0.87,-1.71,0.02,0.03,0.01
8:20:12 PM,9.00,-0.90,-1.56,0.04,-0.01,0.01
8:20:12 PM,9.12,-0.85,-1.59,-0.02,0.03,0.01
8:20:12 PM,9.03,-0.84,-1.61,0.00,-0.02,0.01
8:20:12 PM,9.17,-0.83,-1.61,0.04,-0.08,0.01
8:20:12 PM,9.29,-0.94,-1.56,0.04,-0.05,0.01
8:20:13 PM,9.14,-0.89,-1.45,0.02,-0.02,0.01
8:20:13 PM,9.01,-0.86,-1.66,0.04,-0.02,0.01
8:20:13 PM,9.14,-0.77,-1.63,0.01,0.01,0.01
8:20:13 PM,9.17,-0.88,-1.57,0.05,-0.01,0.01
8:20:13 PM,8.87,-0.84,-1.70,0.02,0.04,0.01
8:20:13 PM,9.23,-0.93,-1.61,0.01,-0.02,0.01
8:20:13 PM,9.12,-0.88,-1.57,-0.01,-0.05,0.01
8:20:13 PM,9.06,-0.84,-1.68,0.03,-0.01,0.01
8:20:13 PM,9.06,-0.83,-1.61,0.01,0.01,0.01
8:20:13 PM,9.03,-0.84,-1.76,-0.01,-0.02,0.01
8:20:14 PM,9.13,-0.81,-1.71,0.04,-0.01,0.01
8:20:14 PM,9.23,-0.83,-1.58,0.07,-0.03,0.01
8:20:14 PM,9.14,-0.87,-1.64,0.01,-0.01,0.01
8:20:14 PM,8.99,-0.82,-1.65,-0.00,0.03,0.01
8:20:14 PM,9.09,-0.83,-1.79,-0.01,-0.00,0.01
8:20:14 PM,9.20,-0.80,-1.63,0.02,-0.04,0.01
8:20:14 PM,9.33,-0.85,-1.34,-0.03,-0.07,0.01
8:20:14 PM,9.08,-0.80,-1.79,-0.03,0.00,0.01
8:20:14 PM,9.15,-0.85,-1.75,-0.00,-0.02,0.01
8:20:15 PM,9.13,-0.84,-1.65,0.01,0.01,0.01
8:20:15 PM,8.95,-0.86,-1.61,-0.01,-0.06,0.01
8:20:15 PM,9.00,-0.94,-1.42,-0.02,0.01,0.01
8:20:15 PM,9.18,-0.89,-1.61,-0.01,0.00,0.01
8:20:15 PM,9.11,-0.89,-1.50,0.06,-0.01,0.01
8:20:15 PM,9.08,-0.83,-1.62,0.01,-0.02,0.01
8:20:15 PM,9.16,-0.84,-1.73,-0.01,0.00,0.01
8:20:15 PM,9.05,-0.88,-1.63,0.01,-0.02,0.01
8:20:15 PM,9.12,-0.82,-1.89,0.05,-0.01,0.01
8:20:16 PM,9.03,-0.89,-1.67,0.01,-0.00,0.01
8:20:16 PM,9.00,-0.84,-1.73,-0.00,-0.01,0.01
8:20:16 PM,9.05,-0.88,-1.55,-0.02,-0.02,0.01
8:20:16 PM,9.18,-0.93,-1.69,0.03,-0.02,0.01
8:20:16 PM,9.09,-0.82,-1.48,0.01,-0.02,0.01
8:20:16 PM,9.07,-0.82,-1.67,-0.00,-0.01,0.01
8:20:16 PM,9.13,-0.85,-1.65,0.05,-0.01,0.01
8:20:16 PM,9.03,-0.91,-1.44,0.04,-0.05,0.01
8:20:16 PM,9.10,-0.89,-1.64,0.06,0.00,0.01
8:20:16 PM,8.98,-0.79,-1.69,0.06,0.01,0.01
8:20:17 PM,9.06,-0.80,-1.70,0.03,-0.03,0.01
8:20:17 PM,9.13,-0.85,-1.56,0.01,-0.01,0.01
8:20:17 PM,9.30,-0.91,-1.44,0.01,-0.02,0.01
8:20:17 PM,9.07,-0.88,-1.47,0.00,0.00,0.01
8:20:17 PM,9.06,-0.90,-1.60,0.01,-0.02,0.01
8:20:17 PM,9.11,-0.90,-1.63,-0.03,-0.03,0.01
8:20:17 PM,9.30,-1.00,-1.39,0.05,-0.01,0.01
8:20:17 PM,9.25,-0.99,-1.43,0.02,-0.05,0.01
8:20:17 PM,9.10,-0.97,-1.39,0.01,-0.00,0.01
8:20:18 PM,9.05,-0.89,-1.54,-0.03,-0.01,0.01
8:20:18 PM,10.41,-1.20,-1.52,0.01,0.39,0.01
8:20:18 PM,9.40,-1.02,-1.63,-0.08,-0.11,0.01
8:20:18 PM,9.05,-0.95,-1.68,-0.07,-0.07,0.01
8:20:18 PM,9.17,-1.04,-1.66,0.04,-0.03,0.01
8:20:18 PM,9.05,-1.05,-1.49,0.03,-0.04,0.01
8:20:18 PM,9.30,-1.05,-1.49,0.01,0.02,0.01
8:20:18 PM,9.11,-1.01,-1.49,0.05,-0.02,0.01
8:20:18 PM,9.01,-0.90,-1.81,0.06,0.03,0.01
8:20:18 PM,9.11,-1.02,-1.73,-0.01,-0.01,0.01
8:20:19 PM,9.17,-0.99,-1.61,0.04,-0.04,0.01
8:20:19 PM,9.10,-0.99,-1.51,0.06,-0.02,0.01
8:20:19 PM,9.23,-1.07,-1.47,0.04,-0.02,0.01
8:20:19 PM,9.15,-0.91,-1.54,0.07,-0.03,0.01
8:20:19 PM,8.94,-1.01,-1.67,0.00,0.00,0.01
8:20:19 PM,8.86,-0.90,-2.01,-0.00,0.02,0.01
8:20:19 PM,9.28,-1.02,-1.51,0.02,0.01,0.01
8:20:19 PM,9.21,-1.00,-1.64,0.08,-0.06,0.01
8:20:19 PM,9.11,-1.08,-1.46,0.00,-0.05,0.01
8:20:20 PM,9.20,-1.00,-1.59,0.01,-0.04,0.01
8:20:20 PM,9.20,-1.03,-1.53,0.04,-0.01,0.01
8:20:20 PM,9.56,-0.92,-1.83,0.03,0.06,0.01
8:20:20 PM,9.08,-0.70,-2.00,0.24,0.50,0.01
8:20:20 PM,8.41,-0.43,-1.49,-0.05,-0.28,0.01
8:20:20 PM,9.05,-0.48,-1.73,0.01,0.06,0.01
8:20:20 PM,8.89,-0.60,-1.38,0.01,0.02,0.01
8:20:20 PM,10.08,-0.64,-1.04,-0.03,0.05,0.01
8:20:20 PM,9.06,-0.50,-1.21,-0.02,-0.04,0.01
8:20:20 PM,9.55,-0.59,-1.04,0.01,-0.29,0.01
8:20:21 PM,8.96,-0.60,-0.80,0.02,-0.04,0.01
8:20:21 PM,9.95,-0.44,-1.05,-0.07,-0.03,0.01
8:20:21 PM,9.04,-0.41,-1.43,0.09,-0.15,0.01
8:20:21 PM,9.03,-0.52,-1.08,0.02,0.06,0.01
8:20:21 PM,9.23,-0.48,-1.11,0.11,0.05,0.01
8:20:21 PM,9.17,-0.31,-1.33,0.04,-0.03,0.01
8:20:21 PM,9.22,-0.51,-1.16,-0.01,-0.06,0.01
8:20:21 PM,8.81,-0.57,-1.32,0.07,-0.31,0.01
8:20:21 PM,9.54,-0.83,-1.06,0.12,-0.00,0.01
8:20:22 PM,9.18,-0.72,-0.98,0.11,0.01,0.01
8:20:22 PM,9.00,-0.65,-1.43,0.02,0.06,0.01
8:20:22 PM,9.46,-0.69,-1.22,-0.01,-0.06,0.01
8:20:22 PM,9.12,-0.65,-1.23,-0.05,0.01,0.01
8:20:22 PM,9.23,-0.61,-1.33,-0.03,0.03,0.01
8:20:22 PM,9.17,-0.68,-1.14,-0.00,-0.06,0.01
8:20:22 PM,8.85,-0.72,-1.16,0.04,-0.00,0.01
8:20:22 PM,9.19,-0.66,-1.44,0.03,-0.01,0.01
8:20:22 PM,9.83,-0.56,-1.18,0.00,-0.26,0.01
8:20:22 PM,9.52,-0.52,-1.50,0.03,-0.09,0.01
8:20:23 PM,9.62,-0.62,-1.46,-0.02,-0.06,0.01
8:20:23 PM,9.18,-0.51,-1.61,0.03,-0.02,0.01
8:20:23 PM,9.30,-0.66,-1.26,0.07,0.04,0.01
8:20:23 PM,8.86,-0.59,-1.40,0.01,0.01,0.01
8:20:23 PM,8.64,-0.67,-1.14,0.09,0.21,0.01
8:20:23 PM,9.08,-0.79,-1.01,0.06,0.08,0.01
8:20:23 PM,9.16,-0.69,-1.11,0.03,0.01,0.01
8:20:23 PM,9.18,-0.55,-1.53,0.02,0.05,0.01
8:20:23 PM,9.32,-0.57,-1.48,0.03,-0.00,0.01
8:20:24 PM,9.36,-0.68,-1.19,0.05,-0.07,0.01
8:20:24 PM,9.15,-0.61,-1.29,0.04,-0.01,0.01
8:20:24 PM,9.13,-0.75,-0.77,-0.00,-0.02,0.01
8:20:24 PM,8.75,-0.71,-1.09,0.06,0.23,0.01
8:20:24 PM,8.94,-0.63,-1.10,0.05,0.05,0.01
8:20:24 PM,9.17,-0.58,-1.23,0.03,0.00,0.01
8:20:24 PM,8.99,-0.58,-1.31,0.02,0.01,0.01
8:20:24 PM,9.06,-0.56,-1.30,0.04,-0.03,0.01
8:20:24 PM,9.13,-0.59,-1.43,-0.02,-0.02,0.01
8:20:24 PM,9.03,-0.66,-1.32,-0.02,-0.03,0.01
8:20:25 PM,9.20,-0.58,-1.28,0.03,-0.02,0.01
8:20:25 PM,9.10,-0.59,-1.36,0.02,-0.00,0.01
8:20:25 PM,9.52,-0.61,-1.04,-0.02,-0.18,0.01
8:20:25 PM,9.20,-0.48,-1.48,-0.02,-0.05,0.01
8:20:25 PM,9.28,-0.54,-1.30,0.04,-0.05,0.01
8:20:25 PM,9.26,-0.52,-1.26,0.03,-0.03,0.01
8:20:25 PM,9.03,-0.51,-1.36,0.00,-0.06,0.01
8:20:25 PM,9.13,-0.52,-1.47,0.00,0.01,0.01
8:20:25 PM,9.20,-0.57,-1.21,0.06,-0.08,0.01
8:20:26 PM,9.20,-0.53,-1.32,0.06,-0.04,0.01
8:20:26 PM,9.21,-0.47,-1.47,0.01,0.01,0.01
8:20:26 PM,9.08,-0.47,-1.32,0.01,-0.07,0.01
8:20:26 PM,9.14,-0.65,-0.86,0.03,0.08,0.01
8:20:26 PM,9.16,-0.48,-1.27,-0.03,0.06,0.01
8:20:26 PM,9.40,-0.45,-1.31,-0.03,-0.01,0.01
8:20:26 PM,9.38,-0.56,-1.05,0.05,-0.02,0.01
8:20:26 PM,9.31,-0.59,-1.17,0.03,-0.01,0.01
8:20:26 PM,8.86,-0.44,-1.45,0.07,0.07,0.01
8:20:27 PM,9.18,-0.47,-1.47,-0.03,-0.07,0.01
8:20:27 PM,8.94,-0.56,-1.26,0.02,-0.03,0.01
8:20:27 PM,8.95,-0.52,-1.28,-0.01,-0.02,0.01
8:20:27 PM,9.09,-0.65,-0.83,0.02,0.04,0.01
8:20:27 PM,9.31,-0.45,-1.14,-0.01,0.00,0.01
8:20:27 PM,9.37,-0.49,-1.42,-0.02,-0.05,0.01
8:20:27 PM,9.44,-0.53,-1.27,-0.01,-0.01,0.01
8:20:27 PM,9.42,-0.58,-1.16,0.02,-0.01,0.01
8:20:27 PM,9.23,-0.58,-1.22,-0.05,-0.03,0.01
8:20:27 PM,8.94,-0.53,-1.31,0.04,-0.04,0.01
8:20:28 PM,9.08,-0.59,-1.00,-0.02,-0.03,0.01
8:20:28 PM,9.35,-0.56,-1.22,0.02,-0.05,0.01
8:20:28 PM,9.37,-0.57,-1.15,0.06,0.02,0.01
8:20:28 PM,9.33,-0.51,-1.55,-0.03,-0.14,0.01
8:20:28 PM,9.09,-0.45,-1.26,-0.03,-0.02,0.01
8:20:28 PM,8.79,-0.51,-1.19,0.03,0.17,0.01
8:20:28 PM,9.27,-0.52,-1.17,0.01,0.07,0.01
8:20:28 PM,9.15,-0.48,-1.12,-0.02,0.02,0.01
8:20:28 PM,9.17,-0.40,-1.22,0.00,0.02,0.01
8:20:29 PM,9.30,-0.49,-1.29,0.02,0.03,0.01
8:20:29 PM,9.24,-0.36,-1.23,-0.02,0.03,0.01
8:20:29 PM,9.27,-0.48,-1.05,0.01,0.02,0.01
8:20:29 PM,9.27,-0.34,-1.31,0.01,0.04,0.01
8:20:29 PM,9.14,-0.40,-1.08,-0.00,-0.09,0.01
8:20:29 PM,8.80,-0.41,-1.12,0.00,-0.04,0.01
8:20:29 PM,9.15,-0.45,-1.13,-0.05,-0.06,0.01
8:20:29 PM,9.05,-0.39,-1.26,0.03,0.02,0.01
8:20:29 PM,9.50,-0.43,-1.11,0.03,-0.01,0.01
8:20:29 PM,9.48,-0.44,-1.07,0.02,0.03,0.01
8:20:30 PM,7.12,-0.18,-1.31,0.07,0.26,0.01
8:20:30 PM,9.28,-0.29,-1.03,0.00,0.05,0.01
8:20:30 PM,8.80,-0.22,-1.24,0.03,0.05,0.01
8:20:30 PM,9.26,-0.17,-1.06,-0.02,0.02,0.01
8:20:30 PM,9.95,-0.24,-0.66,0.01,-0.12,0.01
8:20:30 PM,9.01,-0.21,-0.90,0.05,-0.05,0.01
8:20:30 PM,9.18,-0.02,-0.97,0.00,-0.01,0.01
8:20:30 PM,9.35,-0.08,-0.76,-0.02,0.07,0.01
8:20:30 PM,9.38,-0.01,-0.95,-0.01,-0.06,0.01
8:20:31 PM,9.21,0.05,-1.08,0.03,-0.07,0.01
8:20:31 PM,9.03,-0.01,-0.95,0.02,-0.04,0.01
8:20:31 PM,8.99,0.02,-0.90,-0.02,0.01,0.01
8:20:31 PM,9.03,0.06,-1.13,-0.05,-0.03,0.01
8:20:31 PM,9.23,0.04,-1.07,-0.10,-0.03,0.01
8:20:31 PM,10.22,0.41,-1.16,-0.31,0.93,0.00
8:20:31 PM,9.38,0.58,-0.37,-0.19,0.08,0.01
8:20:31 PM,9.15,1.08,0.26,0.08,-0.02,0.01
8:20:31 PM,9.16,1.13,-0.05,0.02,-0.05,0.01
8:20:31 PM,8.91,1.07,-0.15,0.04,0.04,0.01
8:20:32 PM,9.32,1.01,0.01,0.07,0.04,0.01
8:20:32 PM,9.03,1.11,-0.17,-0.02,-0.10,0.01
8:20:32 PM,8.73,1.11,-0.22,-0.02,-0.03,0.01
8:20:32 PM,9.38,1.01,0.09,0.01,0.01,0.01
8:20:32 PM,8.83,0.96,0.20,-0.00,0.00,0.01
8:20:32 PM,8.94,0.97,0.08,0.00,-0.03,0.01
8:20:32 PM,9.52,0.98,0.34,-0.05,-0.08,0.01
8:20:32 PM,9.58,1.09,0.05,0.02,0.01,0.01
8:20:32 PM,8.88,1.10,-0.45,0.08,-0.46,0.01
8:20:33 PM,9.29,0.76,-0.11,0.03,0.17,0.01
8:20:33 PM,8.50,0.59,-0.26,-0.20,-0.26,0.01
8:20:33 PM,10.06,0.73,0.49,-0.02,-0.23,0.01
8:20:33 PM,9.36,0.73,0.35,0.08,0.01,0.01
8:20:33 PM,9.31,0.77,-0.24,0.08,0.01,0.01
8:20:33 PM,8.82,0.96,-0.49,-0.06,-0.03,0.01
8:20:33 PM,9.35,0.79,-0.27,-0.03,0.02,0.01
8:20:33 PM,9.09,0.66,-0.14,0.03,0.01,0.01
8:20:33 PM,9.51,0.77,0.03,0.01,0.03,0.01
8:20:33 PM,9.04,0.87,-0.01,0.05,-0.02,0.01
8:20:34 PM,9.76,0.79,-0.53,0.14,0.03,0.01
8:20:34 PM,8.89,1.13,-0.59,0.10,0.04,0.01
8:20:34 PM,9.25,0.66,-0.26,-0.02,0.11,0.01
8:20:34 PM,8.82,1.36,-0.59,0.08,0.11,0.01
8:20:34 PM,9.27,0.85,0.16,-0.04,-0.10,0.01
8:20:34 PM,8.96,1.11,-0.38,-0.04,-0.08,0.01
8:20:34 PM,9.20,0.78,0.12,0.04,0.06,0.01
8:20:34 PM,9.17,0.74,0.43,0.09,0.01,0.01
8:20:34 PM,9.22,0.84,-0.11,0.01,-0.03,0.01
8:20:35 PM,9.21,0.86,0.01,0.05,-0.07,0.01
8:20:35 PM,9.19,0.91,-0.12,-0.02,-0.02,0.01
8:20:35 PM,9.27,0.95,-0.29,0.02,-0.03,0.01
8:20:35 PM,9.01,0.80,0.16,0.14,-0.14,0.01
8:20:35 PM,8.99,0.93,0.05,-0.09,0.19,0.01
8:20:35 PM,9.01,1.08,-0.23,0.07,-0.07,0.01
8:20:35 PM,9.12,1.06,-0.34,0.09,-0.08,0.01
8:20:35 PM,8.85,1.10,-0.42,0.02,-0.05,0.01
8:20:35 PM,8.83,1.08,-0.07,0.06,0.01,0.01
8:20:35 PM,9.17,0.90,-0.00,-0.00,0.03,0.01
8:20:36 PM,9.17,1.16,-0.10,0.04,0.10,0.01
8:20:36 PM,9.32,1.05,-0.18,0.02,0.06,0.01
8:20:36 PM,9.22,0.97,0.01,0.03,-0.00,0.01
8:20:36 PM,9.20,0.88,0.12,0.04,-0.01,0.01
