Timestamp,Accel X,Accel Y,Accel Z,Gyro X,Gyro Y,Gyro Z
7:18:21 PM,-0.57,-9.39,-1.25,-0.04,-0.07,0.01
7:18:21 PM,-0.64,-9.49,-1.34,-0.01,-0.01,0.01
7:18:21 PM,-0.60,-9.49,-1.30,0.04,0.00,0.01
7:18:21 PM,-0.52,-9.46,-1.21,0.04,-0.02,0.01
7:18:21 PM,-0.50,-9.48,-1.26,-0.02,-0.04,0.01
7:18:21 PM,-0.49,-9.44,-1.38,-0.01,-0.08,0.01
7:18:21 PM,-0.47,-9.44,-1.27,0.08,0.01,0.01
7:18:22 PM,-0.57,-9.43,-1.00,0.19,0.11,0.01
7:18:22 PM,-0.54,-9.47,-0.91,-0.01,-0.03,0.01
7:18:22 PM,-0.56,-9.48,-1.05,-0.11,-0.09,0.01
7:18:22 PM,-0.69,-9.47,-1.19,-0.17,-0.11,0.01
7:18:22 PM,-0.54,-9.45,-1.34,0.09,0.01,0.01
7:18:22 PM,-0.55,-9.44,-1.13,-0.04,-0.04,0.01
7:18:22 PM,-0.54,-9.48,-1.25,0.03,0.04,0.01
7:18:22 PM,-0.52,-9.48,-1.34,0.02,-0.05,0.01
7:18:22 PM,-0.52,-9.45,-1.08,0.05,0.04,0.01
7:18:23 PM,-0.47,-9.44,-1.26,-0.04,-0.04,0.01
7:18:23 PM,-0.61,-9.44,-1.20,-0.05,-0.03,0.01
7:18:23 PM,-0.62,-9.46,-1.39,0.04,0.04,0.01
7:18:23 PM,-0.38,-9.46,-1.41,0.01,-0.03,0.01
7:18:23 PM,-0.57,-9.44,-1.35,-0.03,-0.04,0.01
7:18:23 PM,-0.47,-9.47,-1.35,0.03,0.03,0.01
7:18:23 PM,-0.58,-9.45,-1.20,0.01,-0.06,0.01
7:18:23 PM,-0.47,-9.45,-1.40,-0.05,-0.08,0.01
7:18:23 PM,-0.63,-9.58,-1.57,-0.07,-0.06,0.01
7:18:23 PM,-0.70,-9.45,-1.57,0.03,0.04,0.01
7:18:24 PM,-0.70,-9.47,-1.53,0.08,0.09,0.01
7:18:24 PM,-0.55,-9.45,-1.32,0.00,-0.03,0.01
7:18:24 PM,-0.44,-9.40,-1.56,-0.09,-0.10,0.01
7:18:24 PM,-0.76,-9.38,-1.55,-0.05,-0.12,0.01
7:18:24 PM,-0.64,-9.43,-1.60,-0.09,0.03,0.01
7:18:24 PM,-0.41,-9.46,-1.80,0.09,-0.01,0.01
7:18:24 PM,-0.07,-9.27,-1.37,0.04,0.01,0.01
7:18:24 PM,-0.55,-9.42,-1.41,-0.07,-0.02,0.01
7:18:24 PM,-0.38,-9.46,-1.59,-0.03,-0.04,0.01
7:18:25 PM,-0.47,-9.50,-1.59,0.02,-0.06,0.01
7:18:25 PM,-0.60,-9.47,-1.44,0.01,-0.01,0.01
7:18:25 PM,-0.61,-9.48,-1.64,-0.02,-0.05,0.01
7:18:25 PM,-0.67,-9.49,-1.77,-0.02,-0.05,0.01
7:18:25 PM,-0.53,-9.29,-1.92,0.04,0.04,0.01
7:18:25 PM,-0.52,-9.53,-1.59,-0.02,-0.01,0.01
7:18:25 PM,-0.58,-9.45,-1.62,-0.04,-0.05,0.01
7:18:25 PM,-0.66,-9.43,-1.65,-0.09,-0.10,0.01
7:18:25 PM,-0.58,-9.38,-1.70,-0.02,-0.05,0.01
7:18:25 PM,-0.70,-9.45,-1.74,-0.01,-0.07,0.01
7:18:26 PM,-0.64,-9.47,-1.91,0.01,-0.03,0.01
7:18:26 PM,-0.88,-9.56,-1.78,-0.04,-0.01,0.01
7:18:26 PM,-0.86,-9.41,-1.83,0.01,-0.02,0.01
7:18:26 PM,-0.62,-9.43,-1.94,0.01,-0.05,0.01
7:18:26 PM,-0.66,-9.47,-1.95,-0.12,-0.14,0.01
7:18:26 PM,-0.95,-9.50,-1.81,-0.06,-0.14,0.01
7:18:26 PM,-0.81,-9.45,-2.19,-0.07,0.03,0.01
7:18:26 PM,-0.83,-9.51,-2.07,-0.04,0.00,0.01
7:18:26 PM,-0.80,-9.39,-2.38,0.03,0.05,0.01
7:18:27 PM,-0.77,-9.38,-2.02,0.02,-0.01,0.01
7:18:27 PM,-0.91,-9.43,-2.07,0.00,-0.02,0.01
7:18:27 PM,-0.87,-9.38,-2.32,-0.02,0.00,0.01
7:18:27 PM,-0.85,-9.44,-2.17,0.04,0.02,0.01
7:18:27 PM,-0.95,-9.39,-1.84,0.04,-0.03,0.01
7:18:27 PM,-0.97,-9.42,-1.94,-0.00,-0.05,0.01
7:18:27 PM,-0.85,-9.15,-2.42,0.09,0.07,0.01
7:18:27 PM,-0.84,-9.45,-2.10,0.06,0.07,0.01
7:18:27 PM,-1.01,-9.35,-1.89,0.05,-0.02,0.01
7:18:27 PM,-0.98,-9.42,-2.02,0.00,-0.01,0.01
7:18:28 PM,-1.08,-9.41,-1.96,0.03,0.00,0.01
7:18:28 PM,-0.90,-9.33,-2.14,0.05,-0.04,0.01
7:18:28 PM,-0.99,-9.39,-1.99,0.00,-0.03,0.01
7:18:28 PM,-0.97,-9.49,-2.12,0.00,-0.02,0.01
7:18:28 PM,-0.94,-9.44,-1.95,0.03,-0.03,0.01
7:18:28 PM,-0.95,-9.42,-1.97,0.07,0.04,0.01
7:18:28 PM,-0.95,-9.43,-1.89,-0.01,-0.02,0.01
7:18:28 PM,-0.85,-9.41,-2.00,-0.02,-0.01,0.01
7:18:28 PM,-0.77,-9.40,-1.98,-0.06,-0.05,0.01
7:18:29 PM,-0.73,-9.36,-2.26,-0.03,-0.06,0.01
7:18:29 PM,-0.86,-9.28,-2.18,0.03,0.00,0.01
7:18:29 PM,-0.87,-9.39,-2.16,0.06,0.01,0.01
7:18:29 PM,-0.77,-9.41,-2.14,-0.05,-0.03,0.01
7:18:29 PM,-0.87,-9.45,-2.06,0.01,-0.00,0.01
7:18:29 PM,-0.65,-9.34,-2.07,0.00,-0.09,0.01
7:18:29 PM,-0.66,-9.38,-1.95,0.02,0.01,0.01
7:18:29 PM,-0.86,-9.44,-2.08,-0.03,-0.05,0.01
7:18:29 PM,-0.76,-9.36,-2.26,0.03,0.04,0.01
7:18:30 PM,-0.85,-9.44,-2.20,0.08,0.01,0.01
7:18:30 PM,-0.83,-9.55,-2.15,0.01,-0.00,0.01
7:18:30 PM,-0.59,-9.34,-2.11,0.06,-0.13,0.01
7:18:30 PM,-0.77,-9.36,-2.04,0.01,-0.01,0.01
7:18:30 PM,-0.80,-9.46,-2.10,0.02,0.01,0.01
7:18:30 PM,-0.88,-9.45,-1.96,0.04,-0.00,0.01
7:18:30 PM,-0.58,-9.25,-1.94,0.05,0.09,0.01
7:18:30 PM,-0.70,-9.46,-2.06,0.01,-0.04,0.01
7:18:30 PM,-0.74,-9.46,-2.08,-0.02,-0.02,0.01
7:18:30 PM,-0.67,-9.43,-2.14,-0.02,-0.00,0.01
7:18:31 PM,-0.75,-9.37,-2.11,0.05,-0.01,0.01
7:18:31 PM,-0.67,-9.39,-2.11,0.02,-0.03,0.01
7:18:31 PM,-0.63,-9.46,-2.05,-0.01,-0.01,0.01
7:18:31 PM,-0.66,-9.43,-2.15,0.03,0.07,0.01
7:18:31 PM,-0.58,-9.42,-1.94,-0.00,-0.04,0.01
7:18:31 PM,-0.68,-9.36,-2.20,-0.01,-0.01,0.01
7:18:31 PM,-0.58,-9.34,-2.17,-0.01,-0.01,0.01
7:18:31 PM,-0.53,-9.32,-2.11,-0.03,-0.06,0.01
7:18:31 PM,-0.60,-9.46,-2.21,-0.05,-0.03,0.01
7:18:32 PM,-0.59,-9.43,-2.21,0.01,-0.00,0.01
7:18:32 PM,-0.66,-9.38,-2.26,0.04,0.04,0.01
7:18:32 PM,-0.64,-9.37,-2.05,0.04,-0.00,0.01
7:18:32 PM,-0.58,-9.42,-2.19,0.04,0.03,0.01
7:18:32 PM,-0.39,-9.40,-2.19,-0.01,-0.01,0.01
7:18:32 PM,-0.55,-9.46,-2.32,-0.00,0.00,0.01
7:18:32 PM,-0.52,-9.46,-2.23,-0.00,0.03,0.01
7:18:32 PM,-0.54,-9.42,-2.49,-0.01,-0.05,0.01
7:18:32 PM,-0.49,-9.39,-2.31,0.03,-0.01,0.01
7:18:32 PM,-0.34,-9.41,-2.28,-0.03,-0.02,0.01
7:18:33 PM,-0.57,-9.41,-2.27,0.02,-0.05,0.01
7:18:33 PM,-0.52,-9.41,-2.24,-0.03,-0.04,0.01
7:18:33 PM,-0.44,-9.38,-2.28,0.03,0.00,0.01
7:18:33 PM,-0.50,-9.34,-2.40,-0.00,-0.02,0.01
7:18:33 PM,-0.54,-9.34,-2.28,-0.06,-0.06,0.01
7:18:33 PM,-0.57,-9.19,-2.81,-0.03,0.01,0.01
7:18:33 PM,-0.62,-9.54,-2.21,0.03,-0.04,0.01
7:18:33 PM,-0.39,-9.43,-2.66,0.03,0.08,0.01
7:18:33 PM,-0.49,-9.32,-2.27,0.24,0.06,0.01
7:18:34 PM,-0.50,-9.45,-1.98,0.08,0.09,0.01
7:18:34 PM,-0.05,-9.44,-2.07,0.03,-0.04,0.01
7:18:34 PM,-0.36,-9.44,-2.07,-0.05,-0.12,0.01
7:18:34 PM,-0.25,-9.33,-2.32,-0.02,-0.04,0.01
7:18:34 PM,-0.38,-9.51,-2.03,0.02,0.02,0.01
7:18:34 PM,-0.36,-9.45,-2.23,0.02,-0.01,0.01
7:18:34 PM,-0.45,-9.39,-2.07,0.04,-0.01,0.01
7:18:34 PM,-0.46,-9.44,-2.30,-0.01,-0.07,0.01
7:18:34 PM,-0.53,-9.35,-1.93,0.02,-0.09,0.01
7:18:34 PM,-0.34,-9.36,-2.33,-0.07,-0.07,0.01
7:18:35 PM,-0.58,-9.34,-2.26,-0.01,-0.07,0.01
7:18:35 PM,-0.32,-9.40,-2.25,-0.02,-0.06,0.01
7:18:35 PM,-0.61,-9.38,-2.14,-0.03,-0.06,0.01
7:18:35 PM,-0.41,-9.32,-2.31,-0.01,0.01,0.01
7:18:35 PM,-0.32,-9.35,-2.34,0.06,0.01,0.01
7:18:35 PM,-0.33,-9.38,-2.34,-0.02,0.15,0.01
7:18:35 PM,-0.34,-9.56,-2.17,-0.02,-0.02,0.01
7:18:35 PM,-0.34,-9.36,-2.62,-0.00,-0.06,0.01
7:18:35 PM,-0.55,-9.51,-2.19,-0.03,0.00,0.01
7:18:36 PM,-0.24,-9.37,-2.53,0.05,-0.01,0.01
7:18:36 PM,-0.49,-9.48,-2.18,-0.07,-0.04,0.01
7:18:36 PM,-0.16,-9.35,-2.72,0.07,0.05,0.01
7:18:36 PM,-0.54,-9.62,-1.80,0.13,-0.22,0.01
7:18:36 PM,-0.02,-9.36,-2.29,-0.05,-0.14,0.01
7:18:36 PM,-0.26,-9.42,-2.55,-0.07,0.01,0.01
7:18:36 PM,-0.51,-9.32,-2.34,0.01,0.02,0.01
7:18:36 PM,-0.11,-9.29,-2.55,0.07,-0.04,0.01
7:18:36 PM,-0.16,-9.35,-2.29,0.04,0.03,0.01
7:18:36 PM,-0.30,-9.41,-2.44,-0.01,-0.07,0.01
7:18:37 PM,-0.43,-9.39,-2.39,0.00,-0.01,0.01
7:18:37 PM,-0.33,-9.20,-2.80,-0.14,0.03,0.01
7:18:37 PM,-0.45,-9.39,-2.55,0.02,-0.04,0.01
7:18:37 PM,-0.31,-9.33,-2.60,-0.03,-0.06,0.01
7:18:37 PM,-0.33,-9.38,-2.70,-0.00,0.05,0.01
7:18:37 PM,-0.25,-9.28,-2.65,0.05,-0.04,0.01
7:18:37 PM,-0.34,-9.36,-2.41,0.03,-0.01,0.01
7:18:37 PM,-0.35,-9.32,-2.34,0.04,0.03,0.01
7:18:37 PM,-0.41,-9.30,-2.46,0.00,-0.02,0.01
7:18:38 PM,-0.21,-9.31,-2.47,-0.07,-0.10,0.01
7:18:38 PM,-0.39,-9.42,-2.67,-0.07,0.06,0.01
7:18:38 PM,-0.24,-9.44,-2.96,0.02,-0.00,0.01
7:18:38 PM,-0.48,-9.48,-2.27,-0.06,0.01,0.01
7:18:38 PM,-0.26,-9.27,-2.93,-0.05,-0.07,0.01
7:18:38 PM,-0.68,-9.42,-2.44,0.05,-0.07,0.01
7:18:38 PM,-0.47,-9.43,-2.81,-0.04,-0.05,0.01
7:18:38 PM,-0.63,-9.35,-2.67,0.01,-0.05,0.01
7:18:38 PM,-0.57,-9.45,-2.96,0.04,0.12,0.01
7:18:38 PM,-0.39,-9.37,-2.74,0.02,0.03,0.01
7:18:39 PM,-0.59,-9.28,-2.68,0.04,-0.06,0.01
7:18:39 PM,-0.44,-9.33,-2.83,0.03,0.01,0.01
7:18:39 PM,-0.63,-9.34,-2.77,0.04,0.06,0.01
7:18:39 PM,-0.51,-9.42,-2.61,0.03,0.08,0.01
7:18:39 PM,-0.47,-9.47,-2.61,-0.03,-0.01,0.01
7:18:39 PM,-0.71,-9.41,-2.62,0.04,-0.05,0.01
7:18:39 PM,-0.46,-9.39,-2.61,0.07,-0.01,0.01
7:18:39 PM,-0.63,-9.35,-2.59,-0.01,-0.06,0.01
7:18:39 PM,-0.53,-9.39,-2.61,0.01,0.06,0.01
7:18:40 PM,-0.44,-9.31,-2.43,0.01,-0.03,0.01
7:18:40 PM,-0.45,-9.27,-2.75,-0.07,-0.14,0.01
7:18:40 PM,-0.61,-9.33,-2.62,0.03,0.04,0.01
7:18:40 PM,-0.43,-9.33,-2.69,0.05,0.01,0.01
7:18:40 PM,-0.48,-9.35,-2.49,-0.02,-0.05,0.01
7:18:40 PM,-0.40,-9.36,-2.63,0.02,0.02,0.01
7:18:40 PM,-0.32,-9.34,-2.78,0.05,0.04,0.01
7:18:40 PM,-0.34,-9.35,-2.71,-0.00,-0.07,0.01
7:18:40 PM,-0.17,-9.43,-3.02,-0.03,-0.05,0.01
7:18:40 PM,-0.38,-9.33,-2.71,0.07,0.06,0.01
7:18:41 PM,-0.39,-9.35,-2.58,0.04,0.00,0.01
7:18:41 PM,-0.38,-9.32,-2.80,0.01,0.00,0.01
7:18:41 PM,-0.37,-9.28,-2.72,-0.01,-0.07,0.01
7:18:41 PM,-0.32,-9.32,-2.65,0.02,-0.04,0.01
7:18:41 PM,-0.42,-9.32,-2.59,0.03,0.00,0.01
7:18:41 PM,-0.39,-9.41,-2.62,0.04,0.01,0.01
7:18:41 PM,-0.25,-9.40,-2.55,0.05,0.03,0.01
7:18:41 PM,-0.35,-9.26,-2.66,-0.01,-0.05,0.01
7:18:41 PM,-0.32,-9.34,-2.58,-0.05,-0.11,0.01
7:18:42 PM,-0.33,-9.38,-2.63,-0.02,-0.04,0.01
7:18:42 PM,-0.43,-9.26,-2.73,0.01,-0.07,0.01
7:18:42 PM,-0.37,-9.26,-2.77,0.06,-0.02,0.01
7:18:42 PM,-0.33,-9.31,-2.81,-0.01,-0.03,0.01
7:18:42 PM,-0.16,-9.29,-2.60,0.05,-0.04,0.01
7:18:42 PM,-0.19,-9.23,-2.62,0.00,-0.09,0.01
7:18:42 PM,-0.31,-9.30,-2.62,-0.03,-0.07,0.01
7:18:42 PM,-0.29,-9.30,-2.75,-0.07,-0.07,0.01
7:18:42 PM,-0.40,-9.28,-2.79,-0.02,-0.01,0.01
7:18:42 PM,-0.35,-9.43,-2.83,-0.03,-0.04,0.01
7:18:43 PM,-0.39,-9.45,-2.71,0.03,0.04,0.01
7:18:43 PM,-0.32,-9.42,-2.93,-0.01,-0.05,0.01
7:18:43 PM,-0.37,-9.40,-2.78,0.00,-0.01,0.01
7:18:43 PM,-0.27,-9.16,-2.78,-0.03,-0.02,0.01
7:18:43 PM,-0.53,-9.35,-2.90,-0.03,0.00,0.01
7:18:43 PM,-0.50,-9.38,-3.08,0.00,0.03,0.01
7:18:43 PM,-0.60,-9.32,-2.98,0.05,0.04,0.01
7:18:43 PM,-0.31,-9.22,-3.14,0.06,0.09,0.01
7:18:43 PM,-0.44,-9.37,-2.81,0.07,0.05,0.01
7:18:44 PM,-0.35,-9.27,-3.07,0.02,0.01,0.01
7:18:44 PM,-0.47,-9.23,-3.08,-0.05,-0.05,0.01
7:18:44 PM,-0.29,-9.17,-3.03,-0.01,-0.06,0.01
7:18:44 PM,-0.37,-9.37,-2.96,0.00,0.02,0.01
7:18:44 PM,-0.52,-9.33,-2.89,-0.04,-0.02,0.01
7:18:44 PM,-0.45,-9.17,-3.24,0.02,-0.07,0.01
7:18:44 PM,-0.47,-9.31,-2.92,0.02,0.00,0.01
7:18:44 PM,-0.45,-9.33,-2.96,0.02,0.01,0.01
7:18:44 PM,-0.47,-9.24,-3.16,0.05,0.04,0.01
7:18:45 PM,-0.32,-9.28,-3.13,0.06,0.01,0.01
7:18:45 PM,-0.36,-9.31,-3.01,0.02,-0.02,0.01
7:18:45 PM,-0.37,-9.22,-3.00,-0.02,-0.08,0.01
7:18:45 PM,-0.48,-9.27,-3.18,0.01,-0.02,0.01
7:18:45 PM,-0.35,-9.29,-3.06,-0.01,-0.09,0.01
7:18:45 PM,-0.40,-9.23,-3.21,0.00,-0.04,0.01
7:18:45 PM,-0.38,-9.22,-3.23,0.01,0.01,0.01
7:18:45 PM,-0.32,-9.30,-3.19,-0.01,-0.01,0.01
7:18:45 PM,-0.48,-9.34,-3.49,-0.01,0.01,0.01
7:18:45 PM,-0.35,-9.27,-3.16,-0.05,-0.08,0.01
7:18:46 PM,-0.52,-9.25,-3.25,0.02,-0.01,0.01
7:18:46 PM,-0.46,-9.23,-3.20,-0.02,-0.06,0.01
7:18:46 PM,-0.36,-9.22,-3.33,0.00,-0.04,0.01
7:18:46 PM,-0.45,-9.33,-3.01,-0.04,-0.10,0.01
7:18:46 PM,-0.45,-9.24,-3.19,0.00,-0.04,0.01
7:18:46 PM,-0.55,-9.28,-3.11,0.01,0.00,0.01
7:18:46 PM,-0.47,-9.25,-3.11,0.01,-0.03,0.01
7:18:46 PM,-0.49,-9.17,-3.27,-0.02,-0.10,0.01
7:18:46 PM,-0.38,-9.32,-3.29,0.00,-0.00,0.01
7:18:47 PM,-0.42,-9.35,-2.92,0.03,-0.04,0.01
7:18:47 PM,-0.53,-9.23,-3.17,0.01,-0.08,0.01
7:18:47 PM,-0.45,-9.19,-3.15,-0.01,-0.05,0.01
7:18:47 PM,-0.58,-9.16,-3.26,-0.02,-0.04,0.01
7:18:47 PM,-0.58,-9.22,-3.24,-0.09,-0.17,0.01
7:18:47 PM,-0.53,-9.08,-3.61,-0.02,-0.04,0.01
7:18:47 PM,-0.54,-9.22,-3.41,0.00,-0.01,0.01
7:18:47 PM,-0.59,-9.28,-3.21,0.02,-0.04,0.01
7:18:47 PM,-0.54,-9.29,-3.26,0.01,0.02,0.01
7:18:47 PM,-0.54,-9.26,-3.28,0.00,0.04,0.01
7:18:48 PM,-0.52,-9.36,-3.29,0.02,0.04,0.01
7:18:48 PM,-0.31,-9.32,-3.16,-0.03,-0.00,0.01
7:18:48 PM,-0.56,-9.24,-3.12,0.02,-0.04,0.01
7:18:48 PM,-0.43,-9.14,-3.34,-0.02,-0.08,0.01
7:18:48 PM,-0.57,-9.25,-3.46,-0.10,-0.11,0.01
7:18:48 PM,-0.63,-9.19,-3.51,-0.01,0.02,0.01
7:18:48 PM,-0.45,-9.34,-3.22,0.02,0.07,0.01
7:18:48 PM,-0.55,-9.22,-3.26,0.04,0.01,0.01
7:18:48 PM,-0.54,-9.28,-3.25,0.01,0.00,0.01
7:18:49 PM,-0.66,-9.25,-3.32,0.05,0.05,0.01
7:18:49 PM,-0.51,-9.27,-3.20,-0.02,-0.11,0.01
7:18:49 PM,-0.57,-9.29,-3.23,0.04,0.03,0.01
7:18:49 PM,-0.56,-9.12,-3.40,0.05,0.01,0.01
7:18:49 PM,-0.44,-9.36,-3.28,0.07,0.12,0.01
7:18:49 PM,-0.47,-9.43,-3.09,0.07,0.13,0.01
7:18:49 PM,-0.51,-9.28,-3.13,0.02,0.01,0.01
7:18:49 PM,-0.52,-9.30,-3.17,0.03,-0.00,0.01
7:18:49 PM,-0.58,-9.35,-3.01,-0.02,-0.02,0.01
7:18:49 PM,-0.60,-9.24,-3.05,0.06,0.03,0.01
7:18:50 PM,-0.49,-9.21,-3.05,0.02,0.02,0.01
7:18:50 PM,-0.63,-9.31,-2.91,-0.01,-0.05,0.01
7:18:50 PM,-0.43,-9.43,-3.01,0.03,0.02,0.01
7:18:50 PM,-0.34,-9.28,-3.11,0.07,0.02,0.01
7:18:50 PM,-0.54,-9.05,-3.40,0.05,0.01,0.01
7:18:50 PM,-0.50,-9.23,-3.08,0.04,0.00,0.01
7:18:50 PM,-0.43,-9.31,-2.88,0.01,-0.01,0.01
7:18:50 PM,-0.48,-9.29,-2.87,0.02,-0.01,0.01
7:18:50 PM,-0.46,-9.27,-3.10,-0.00,-0.05,0.01
7:18:51 PM,-0.53,-9.25,-2.99,0.01,-0.02,0.01
7:18:51 PM,-0.59,-9.28,-2.91,0.00,-0.03,0.01
7:18:51 PM,-0.40,-9.26,-3.00,0.04,0.02,0.01
7:18:51 PM,-0.28,-9.29,-2.87,-0.00,-0.05,0.01
7:18:51 PM,-0.57,-9.24,-2.99,-0.05,-0.08,0.01
7:18:51 PM,-0.41,-9.30,-2.96,0.01,-0.06,0.01
7:18:51 PM,-0.43,-9.34,-2.83,0.02,-0.05,0.01
7:18:51 PM,-0.40,-9.21,-3.08,0.02,-0.03,0.01
7:18:51 PM,-0.57,-9.28,-2.89,-0.01,0.01,0.01
7:18:51 PM,-0.33,-9.41,-3.17,0.01,0.04,0.01
7:18:52 PM,-0.43,-9.33,-3.08,0.01,-0.00,0.01
7:18:52 PM,-0.43,-9.36,-2.96,0.03,0.02,0.01
7:18:52 PM,-0.42,-9.27,-2.89,0.01,-0.03,0.01
7:18:52 PM,-0.36,-9.28,-2.94,-0.00,-0.04,0.01
7:18:52 PM,-0.31,-9.42,-2.87,-0.01,0.00,0.01
7:18:52 PM,-0.32,-9.37,-3.16,0.02,0.00,0.01
7:18:52 PM,-0.37,-9.33,-2.95,-0.01,-0.08,0.01
7:18:52 PM,-0.69,-9.33,-2.93,-0.03,-0.08,0.01
7:18:52 PM,-0.52,-9.24,-3.01,0.00,-0.03,0.01
7:18:53 PM,-0.59,-9.27,-3.17,0.03,0.01,0.01
7:18:53 PM,-0.49,-9.33,-2.92,0.01,0.02,0.01
7:18:53 PM,-0.34,-9.34,-3.01,0.02,-0.04,0.01
7:18:53 PM,-0.42,-9.26,-3.12,0.03,0.03,0.01
7:18:53 PM,-0.54,-9.31,-3.08,0.01,0.02,0.01
7:18:53 PM,-0.55,-9.26,-2.96,0.03,0.02,0.01
7:18:53 PM,-0.56,-9.28,-3.02,0.01,-0.07,0.01
7:18:53 PM,-0.63,-9.43,-2.91,0.01,0.02,0.01
7:18:53 PM,-0.40,-9.29,-3.01,0.02,0.02,0.01
7:18:53 PM,-0.48,-9.25,-3.06,-0.02,-0.09,0.01
7:18:54 PM,-0.47,-9.34,-3.08,-0.00,-0.02,0.01
7:18:54 PM,-0.40,-9.31,-2.95,0.02,-0.01,0.01
7:18:54 PM,-0.47,-9.34,-2.88,0.01,-0.03,0.01
7:18:54 PM,-0.39,-9.25,-3.04,0.00,-0.04,0.01
7:18:54 PM,-0.51,-9.34,-3.00,-0.00,-0.05,0.01
7:18:54 PM,-0.53,-9.32,-2.90,0.03,-0.01,0.01
7:18:54 PM,-0.53,-9.30,-3.09,0.05,0.02,0.01
7:18:54 PM,-0.27,-9.28,-3.12,0.02,-0.07,0.01
7:18:54 PM,-0.38,-9.32,-2.99,-0.01,-0.07,0.01
7:18:55 PM,-0.45,-9.24,-3.07,0.02,-0.01,0.01
7:18:55 PM,-0.52,-9.31,-2.94,0.01,0.01,0.01
7:18:55 PM,-0.43,-9.28,-3.12,0.04,0.02,0.01
7:18:55 PM,-0.43,-9.36,-2.89,-0.01,-0.06,0.01
7:18:55 PM,-0.31,-9.31,-2.89,-0.01,-0.07,0.01
7:18:55 PM,-0.24,-9.42,-2.65,-0.04,-0.06,0.01
7:18:55 PM,-0.20,-9.21,-3.11,0.03,-0.08,0.01
7:18:55 PM,-0.24,-9.30,-3.29,0.03,-0.05,0.01
7:18:55 PM,-0.31,-9.16,-3.17,0.01,0.01,0.01
7:18:55 PM,-0.22,-9.24,-2.85,-0.01,-0.05,0.01
7:18:56 PM,-0.42,-9.30,-2.82,0.00,-0.09,0.01
7:18:56 PM,-0.49,-9.34,-2.99,0.00,-0.01,0.01
7:18:56 PM,-0.17,-9.13,-3.23,-0.05,0.14,0.01
7:18:56 PM,-0.26,-9.28,-3.06,-0.01,-0.07,0.01
7:18:56 PM,-0.24,-9.23,-3.06,0.02,-0.06,0.01
7:18:56 PM,-0.29,-9.27,-3.14,0.01,-0.04,0.01
7:18:56 PM,-0.39,-9.28,-3.08,0.02,-0.02,0.01
7:18:56 PM,-0.47,-9.27,-3.06,0.03,-0.00,0.01
7:18:56 PM,-0.29,-9.31,-2.96,0.04,0.02,0.01
7:18:57 PM,-0.25,-9.32,-2.99,0.02,0.00,0.01
7:18:57 PM,-0.44,-9.23,-3.13,-0.02,-0.04,0.01
7:18:57 PM,-0.39,-9.32,-3.02,-0.04,-0.09,0.01
7:18:57 PM,-0.40,-9.30,-2.84,0.03,-0.04,0.01
7:18:57 PM,-0.32,-9.27,-3.01,0.01,-0.07,0.01
7:18:57 PM,-0.48,-9.23,-3.21,-0.00,-0.00,0.01
7:18:57 PM,-0.31,-9.32,-2.93,-0.00,-0.02,0.01
7:18:57 PM,-0.43,-9.28,-3.01,-0.02,0.07,0.01
7:18:57 PM,-0.54,-9.26,-2.97,0.00,0.03,0.01
7:18:58 PM,-0.32,-9.25,-2.96,-0.01,-0.02,0.01
7:18:58 PM,-0.36,-9.32,-3.11,-0.00,-0.02,0.01
7:18:58 PM,-0.43,-9.33,-3.02,0.01,-0.05,0.01
7:18:58 PM,-0.27,-9.25,-3.12,0.02,-0.00,0.01
7:18:58 PM,-0.44,-9.21,-3.12,0.02,0.04,0.01
7:18:58 PM,-0.31,-9.28,-3.10,0.02,-0.00,0.01
7:18:58 PM,-0.35,-9.30,-2.99,-0.02,0.01,0.01
7:18:58 PM,-0.39,-9.30,-3.05,-0.00,0.02,0.01
7:18:58 PM,-0.32,-9.33,-2.90,0.00,0.05,0.01
7:18:58 PM,-0.16,-9.33,-2.85,-0.01,-0.03,0.01
7:18:59 PM,-0.19,-9.34,-2.89,-0.01,-0.06,0.01
7:18:59 PM,-0.29,-9.32,-3.04,0.00,-0.03,0.01
7:18:59 PM,-0.31,-9.30,-3.05,0.00,-0.03,0.01
7:18:59 PM,-0.50,-9.32,-2.93,0.01,-0.00,0.01
7:18:59 PM,-0.28,-9.30,-2.95,0.03,0.01,0.01
7:18:59 PM,-0.19,-9.37,-3.25,0.01,0.00,0.01
7:18:59 PM,-0.36,-9.24,-3.33,0.04,0.11,0.01
7:18:59 PM,-0.39,-9.21,-3.04,0.00,-0.07,0.01
7:18:59 PM,-0.47,-9.21,-3.29,0.02,0.02,0.01
7:19:00 PM,-0.27,-9.32,-3.11,0.03,0.08,0.01
7:19:00 PM,-0.54,-9.18,-3.17,0.00,-0.00,0.01
7:19:00 PM,-0.61,-9.23,-3.09,0.02,0.02,0.01
7:19:00 PM,-0.24,-9.29,-3.00,0.00,-0.06,0.01
7:19:00 PM,-0.16,-9.33,-3.01,0.01,-0.02,0.01
7:19:00 PM,-0.29,-9.24,-3.00,0.01,-0.06,0.01
7:19:00 PM,-0.19,-9.31,-3.17,0.01,-0.07,0.01
7:19:00 PM,-0.26,-9.29,-3.12,0.02,0.02,0.01
7:19:00 PM,-0.18,-9.30,-2.99,0.02,-0.03,0.01
7:19:00 PM,-0.19,-9.30,-3.07,0.00,-0.05,0.01
7:19:01 PM,-0.24,-9.25,-3.09,0.00,-0.08,0.01
7:19:01 PM,-0.22,-9.22,-3.22,-0.01,-0.10,0.01
7:19:01 PM,-0.35,-9.31,-3.10,0.02,0.03,0.01
7:19:01 PM,-0.11,-9.33,-3.20,0.02,0.02,0.01
7:19:01 PM,-0.24,-9.22,-3.11,-0.01,-0.03,0.01
7:19:01 PM,-0.17,-9.30,-3.21,0.01,-0.02,0.01
7:19:01 PM,-0.32,-9.25,-3.10,0.00,-0.05,0.01
7:19:01 PM,-0.25,-9.33,-3.08,-0.01,-0.08,0.01
7:19:01 PM,-0.19,-9.29,-3.11,0.03,-0.01,0.01
7:19:02 PM,-0.34,-9.24,-3.21,0.01,-0.04,0.01
7:19:02 PM,-0.36,-9.26,-3.22,0.01,-0.01,0.01
7:19:02 PM,-0.41,-9.23,-3.31,0.01,0.01,0.01
7:19:02 PM,-0.35,-9.22,-3.20,0.01,-0.05,0.01
7:19:02 PM,-0.29,-9.24,-3.25,-0.01,-0.03,0.01
7:19:02 PM,-0.24,-9.30,-3.19,0.04,0.06,0.01
7:19:02 PM,-0.37,-9.28,-3.11,0.01,-0.00,0.01
7:19:02 PM,-0.55,-9.25,-3.14,0.01,-0.03,0.01
7:19:02 PM,-0.28,-9.23,-2.98,0.02,-0.07,0.01
7:19:02 PM,-0.37,-9.27,-3.15,0.01,-0.01,0.01
7:19:03 PM,-0.27,-9.28,-3.25,0.01,-0.04,0.01
7:19:03 PM,-0.12,-9.22,-3.19,0.02,-0.01,0.01
7:19:03 PM,-0.20,-9.31,-3.03,0.00,-0.05,0.01
7:19:03 PM,-0.34,-9.20,-3.04,0.01,0.04,0.01
7:19:03 PM,-0.14,-9.32,-3.23,0.05,0.06,0.01
7:19:03 PM,-0.00,-9.43,-2.76,-0.04,-0.08,0.01
7:19:03 PM,-0.06,-9.30,-3.01,0.00,-0.04,0.01
7:19:03 PM,-0.16,-9.32,-3.05,-0.02,-0.04,0.01
7:19:03 PM,-0.12,-9.34,-3.14,0.02,0.04,0.01
7:19:04 PM,-0.22,-9.33,-2.93,0.01,0.03,0.01
7:19:04 PM,-0.16,-9.24,-3.14,0.00,-0.00,0.01
7:19:04 PM,-0.18,-9.33,-3.25,0.00,-0.00,0.01
7:19:04 PM,-0.23,-9.22,-3.29,0.01,0.00,0.01
7:19:04 PM,-0.10,-9.25,-3.21,-0.00,-0.03,0.01
7:19:04 PM,-0.30,-9.29,-2.99,-0.01,-0.09,0.01
7:19:04 PM,-0.23,-9.22,-3.02,0.01,-0.06,0.01
7:19:04 PM,-0.25,-9.25,-3.12,-0.02,-0.02,0.01
7:19:04 PM,-0.19,-9.24,-3.25,-0.01,-0.04,0.01
7:19:04 PM,-0.31,-9.24,-3.15,0.01,-0.06,0.01
7:19:05 PM,-0.27,-9.25,-3.01,0.01,-0.04,0.01
7:19:05 PM,-0.17,-9.26,-3.08,0.02,0.00,0.01
7:19:05 PM,-0.11,-9.30,-3.24,0.03,0.01,0.01
7:19:05 PM,-0.24,-9.23,-3.03,0.00,-0.01,0.01
7:19:05 PM,0.03,-9.34,-3.10,-0.01,-0.01,0.01
7:19:05 PM,-0.04,-9.36,-3.25,0.00,0.01,0.01
7:19:05 PM,-0.15,-9.24,-3.28,-0.01,-0.03,0.01
7:19:05 PM,-0.28,-9.28,-3.25,0.02,0.01,0.01
7:19:05 PM,-0.19,-9.24,-3.19,0.02,-0.01,0.01
7:19:06 PM,-0.33,-9.19,-3.16,0.01,0.01,0.01
7:19:06 PM,-0.14,-9.29,-3.18,-0.02,-0.06,0.01
7:19:06 PM,-0.33,-9.18,-3.20,0.00,-0.02,0.01
7:19:06 PM,-0.24,-9.29,-3.34,0.02,0.01,0.01
7:19:06 PM,-0.11,-9.25,-3.26,-0.00,-0.06,0.01
7:19:06 PM,-0.15,-9.26,-3.30,0.01,0.01,0.01
7:19:06 PM,-0.20,-9.28,-3.33,0.02,0.04,0.01
7:19:06 PM,-0.07,-9.28,-3.36,0.01,0.00,0.01
7:19:06 PM,-0.11,-9.24,-3.25,-0.01,-0.06,0.01
7:19:06 PM,-0.17,-9.23,-3.20,-0.01,-0.10,0.01
7:19:07 PM,-0.19,-9.25,-3.24,0.00,-0.08,0.01
7:19:07 PM,-0.23,-9.22,-3.37,0.03,0.02,0.01
7:19:07 PM,-0.14,-9.26,-3.37,0.02,0.04,0.01
7:19:07 PM,-0.25,-9.26,-3.22,0.01,0.04,0.01
7:19:07 PM,-0.28,-9.24,-3.14,0.01,-0.01,0.01
7:19:07 PM,-0.16,-9.25,-3.36,0.03,0.02,0.01
7:19:07 PM,-0.11,-9.24,-3.37,0.01,-0.01,0.01
7:19:07 PM,-0.21,-9.29,-3.00,0.03,0.03,0.01
7:19:07 PM,-0.32,-9.21,-3.20,0.03,-0.04,0.01
7:19:08 PM,0.00,-9.23,-3.08,-0.03,-0.09,0.01
7:19:08 PM,-0.28,-9.31,-2.97,-0.01,-0.19,0.01
7:19:08 PM,-0.11,-9.32,-3.22,0.07,-0.05,0.01
7:19:08 PM,-0.21,-9.23,-3.15,0.00,-0.14,0.01
7:19:08 PM,-0.27,-9.35,-3.13,0.02,0.04,0.01
7:19:08 PM,-0.18,-9.34,-3.00,0.02,-0.02,0.01
7:19:08 PM,-0.27,-9.22,-3.23,0.02,0.02,0.01
7:19:08 PM,-0.19,-9.23,-3.09,0.03,-0.00,0.01
7:19:08 PM,-0.21,-9.26,-3.11,0.02,0.00,0.01
7:19:09 PM,-0.22,-9.24,-3.17,0.01,0.01,0.01
7:19:09 PM,0.12,-9.39,-2.99,0.02,0.01,0.01
7:19:09 PM,-0.18,-9.29,-3.22,0.01,0.05,0.01
7:19:09 PM,-0.10,-9.32,-3.18,0.02,0.03,0.01
7:19:09 PM,-0.12,-9.38,-2.86,0.02,-0.07,0.01
7:19:09 PM,-0.11,-9.28,-3.01,0.01,0.02,0.01
7:19:09 PM,-0.23,-9.25,-3.11,-0.00,-0.08,0.01
7:19:09 PM,-0.08,-9.29,-3.30,-0.05,-0.04,0.01
7:19:09 PM,-0.15,-9.27,-3.30,-0.04,-0.05,0.01
7:19:09 PM,0.13,-9.21,-3.34,0.05,0.00,0.01
7:19:10 PM,-0.15,-9.25,-3.38,0.02,0.04,0.01
7:19:10 PM,-0.25,-9.28,-3.11,-0.02,-0.03,0.01
7:19:10 PM,-0.20,-9.15,-3.29,0.02,-0.00,0.01
7:19:10 PM,-0.10,-9.31,-3.00,-0.01,-0.11,0.01
7:19:10 PM,-0.12,-9.23,-3.10,-0.01,-0.00,0.01
7:19:10 PM,-0.21,-9.26,-3.24,0.05,0.10,0.01
7:19:10 PM,-0.01,-9.48,-3.03,0.01,-0.01,0.01
7:19:10 PM,-0.11,-9.25,-3.31,0.02,0.00,0.01
7:19:10 PM,-0.24,-9.23,-3.21,0.01,-0.01,0.01
7:19:11 PM,-0.25,-9.15,-3.34,-0.02,-0.06,0.01
7:19:11 PM,-0.13,-9.31,-3.09,-0.01,-0.06,0.01
7:19:11 PM,-0.06,-9.29,-3.13,0.02,-0.03,0.01
7:19:11 PM,-0.06,-9.32,-3.26,0.01,0.04,0.01
7:19:11 PM,-0.47,-9.21,-3.12,0.00,-0.08,0.01
7:19:11 PM,-0.58,-9.04,-3.12,0.01,0.02,0.01
7:19:11 PM,-0.18,-9.12,-3.17,-0.05,-0.08,0.01
7:19:11 PM,-0.18,-9.29,-2.98,0.01,-0.04,0.01
7:19:11 PM,-0.21,-9.26,-3.28,0.01,-0.03,0.01
7:19:11 PM,-0.17,-9.28,-3.25,-0.01,0.02,0.01
7:19:12 PM,-0.29,-9.20,-3.32,0.01,0.00,0.01
7:19:12 PM,-0.17,-9.29,-3.25,0.01,0.02,0.01
7:19:12 PM,-0.12,-9.17,-3.17,-0.00,-0.04,0.01
7:19:12 PM,-0.09,-9.30,-3.10,-0.00,0.00,0.01
7:19:12 PM,0.08,-9.26,-2.93,-0.03,-0.18,0.01
7:19:12 PM,-0.37,-9.20,-3.26,0.03,0.07,0.01
7:19:12 PM,-0.27,-9.18,-3.15,-0.01,-0.11,0.01
7:19:12 PM,-0.16,-9.22,-3.04,0.05,-0.02,0.01
7:19:12 PM,-0.06,-9.21,-3.19,0.02,0.01,0.01
7:19:13 PM,-0.11,-9.26,-3.22,-0.02,-0.10,0.01
7:19:13 PM,-0.33,-9.24,-3.29,0.02,0.03,0.01
7:19:13 PM,-0.20,-9.18,-3.20,0.02,0.04,0.01
7:19:13 PM,-0.25,-9.20,-3.16,-0.02,-0.04,0.01
7:19:13 PM,-0.10,-9.30,-3.40,0.03,0.02,0.01
7:19:13 PM,-0.43,-9.15,-3.21,-0.01,-0.08,0.01
7:19:13 PM,-0.09,-9.24,-3.28,0.01,-0.05,0.01
7:19:13 PM,-0.06,-9.23,-3.11,-0.02,-0.00,0.01
7:19:13 PM,-0.16,-9.25,-3.30,0.01,-0.01,0.01
7:19:13 PM,-0.29,-9.23,-3.33,0.03,0.03,0.01
7:19:14 PM,-0.17,-9.25,-3.17,0.03,0.05,0.01
7:19:14 PM,-0.04,-9.38,-3.22,0.02,0.03,0.01
7:19:14 PM,-0.30,-9.28,-3.21,0.04,0.01,0.01
7:19:14 PM,0.03,-9.27,-3.22,0.03,0.02,0.01
7:19:14 PM,-0.04,-9.23,-3.04,-0.01,0.05,0.01
7:19:14 PM,-0.16,-9.31,-3.10,0.00,-0.04,0.01
7:19:14 PM,-0.29,-9.19,-3.16,0.01,-0.04,0.01
7:19:14 PM,-0.20,-9.26,-3.15,0.03,0.03,0.01
7:19:14 PM,-0.45,-9.08,-3.24,0.04,0.07,0.01
7:19:15 PM,-0.23,-9.28,-3.45,-0.01,-0.01,0.01
7:19:15 PM,-0.22,-9.27,-3.11,-0.01,-0.02,0.01
7:19:15 PM,-0.33,-9.33,-3.07,-0.00,-0.05,0.01
7:19:15 PM,-0.22,-9.20,-3.27,-0.00,-0.05,0.01
7:19:15 PM,-0.13,-9.27,-3.33,0.01,-0.04,0.01
7:19:15 PM,-0.24,-9.32,-3.39,0.01,-0.04,0.01
7:19:15 PM,-0.11,-9.20,-3.25,0.02,-0.04,0.01
7:19:15 PM,-0.16,-9.22,-3.24,-0.01,-0.06,0.01
7:19:15 PM,-0.28,-9.31,-3.24,-0.01,-0.01,0.01
7:19:15 PM,-0.30,-9.26,-3.26,0.00,-0.08,0.01
7:19:16 PM,-0.22,-9.24,-3.35,-0.04,-0.07,0.01
7:19:16 PM,-0.18,-9.19,-3.50,0.01,0.03,0.01
7:19:16 PM,-0.09,-9.23,-3.72,-0.02,0.09,0.01
7:19:16 PM,-0.47,-9.22,-3.28,0.03,-0.04,0.01
7:19:16 PM,-0.67,-9.34,-3.14,-0.05,-0.05,0.01
7:19:16 PM,-0.11,-9.27,-3.35,0.05,0.05,0.01
7:19:16 PM,-0.45,-9.20,-3.39,-0.00,0.04,0.01
7:19:16 PM,-0.38,-9.26,-3.37,-0.00,-0.05,0.01
7:19:16 PM,-0.33,-9.19,-3.31,0.00,-0.04,0.01
7:19:17 PM,-0.33,-9.19,-3.47,0.01,-0.03,0.01
7:19:17 PM,-0.33,-9.29,-3.22,0.03,-0.03,0.01
7:19:17 PM,-0.28,-9.27,-3.23,0.01,-0.03,0.01
7:19:17 PM,-0.28,-9.18,-3.36,0.03,-0.03,0.01
7:19:17 PM,-0.33,-9.19,-3.38,-0.00,-0.04,0.01
7:19:17 PM,-0.24,-9.17,-3.50,0.02,0.03,0.01
7:19:17 PM,-0.31,-9.28,-3.58,0.03,0.04,0.01
7:19:17 PM,-0.30,-9.17,-3.44,0.03,0.01,0.01
7:19:17 PM,-0.28,-9.21,-3.34,-0.01,-0.03,0.01
7:19:17 PM,-0.37,-9.16,-3.44,0.01,-0.02,0.01
7:19:18 PM,-0.16,-9.27,-3.34,0.02,-0.01,0.01
7:19:18 PM,-0.39,-9.21,-3.28,0.02,-0.05,0.01
7:19:18 PM,-0.19,-9.18,-3.47,-0.00,-0.07,0.01
7:19:18 PM,-0.21,-9.24,-3.50,0.01,-0.05,0.01
7:19:18 PM,-0.29,-9.25,-3.30,0.01,-0.06,0.01
7:19:18 PM,-0.29,-9.33,-3.33,0.00,0.00,0.01
7:19:18 PM,-0.32,-9.23,-3.38,0.03,0.03,0.01
7:19:18 PM,-0.21,-9.17,-3.54,0.04,-0.03,0.01
7:19:18 PM,-0.34,-9.22,-3.21,-0.02,-0.06,0.01
7:19:19 PM,-0.31,-9.21,-3.37,0.03,0.01,0.01
7:19:19 PM,-0.14,-9.30,-3.08,0.01,0.03,0.01
7:19:19 PM,-0.54,-9.15,-3.53,0.02,0.01,0.01
7:19:19 PM,-0.20,-9.22,-3.39,0.06,0.08,0.01
7:19:19 PM,0.04,-9.33,-3.11,-0.00,-0.02,0.01
7:19:19 PM,0.01,-9.17,-3.59,-0.00,0.01,0.01
7:19:19 PM,0.16,-9.17,-3.54,0.05,0.05,0.01
7:19:19 PM,-0.00,-9.18,-3.39,0.03,-0.02,0.01
7:19:19 PM,-0.11,-9.13,-3.41,-0.02,-0.06,0.01
7:19:19 PM,-0.17,-9.20,-3.22,0.01,-0.04,0.01
7:19:20 PM,-0.16,-9.08,-3.53,-0.02,-0.04,0.01
7:19:20 PM,0.06,-9.25,-3.42,-0.03,-0.04,0.01
7:19:20 PM,-0.07,-9.21,-3.42,0.00,-0.01,0.01
7:19:20 PM,-0.11,-9.19,-3.57,0.06,0.06,0.01
7:19:20 PM,-0.02,-9.23,-3.33,0.03,0.01,0.01
7:19:20 PM,-0.11,-9.13,-3.45,0.04,-0.04,0.01
7:19:20 PM,-0.00,-9.20,-3.41,-0.02,-0.04,0.01
7:19:20 PM,-0.26,-9.25,-3.31,0.02,0.01,0.01
7:19:20 PM,-0.07,-9.20,-3.40,0.00,-0.05,0.01
7:19:21 PM,-0.13,-9.28,-3.59,0.02,0.03,0.01
7:19:21 PM,-0.13,-9.31,-3.37,0.03,0.03,0.01
7:19:21 PM,-0.17,-9.23,-3.26,0.01,-0.05,0.01
7:19:21 PM,-0.27,-9.30,-3.32,-0.00,0.00,0.01
7:19:21 PM,-0.10,-9.20,-3.41,-0.02,-0.04,0.01
7:19:21 PM,-0.01,-9.14,-3.39,-0.04,-0.04,0.01
7:19:21 PM,-0.23,-9.22,-3.29,-0.01,-0.01,0.01
7:19:21 PM,-0.03,-9.25,-3.37,-0.01,-0.01,0.01
7:19:21 PM,-0.28,-9.31,-3.22,0.00,-0.04,0.01
7:19:22 PM,-0.14,-9.19,-3.56,0.01,0.00,0.01
7:19:22 PM,-0.07,-9.22,-3.57,0.03,0.03,0.01
7:19:22 PM,-0.18,-9.24,-3.15,-0.00,0.02,0.01
7:19:22 PM,-0.17,-9.20,-3.44,-0.03,-0.03,0.01
7:19:22 PM,-0.23,-9.25,-3.08,-0.04,-0.04,0.01
7:19:22 PM,-0.34,-9.18,-3.69,-0.03,-0.03,0.01
7:19:22 PM,-0.21,-9.17,-3.38,0.03,-0.05,0.01
7:19:22 PM,-0.18,-9.21,-3.23,0.12,0.12,0.01
7:19:22 PM,-0.20,-9.15,-3.59,0.08,0.01,0.01
7:19:22 PM,-0.30,-9.19,-3.53,-0.06,-0.03,0.01
7:19:23 PM,-0.42,-9.18,-3.50,0.02,0.03,0.01
7:19:23 PM,0.01,-9.04,-3.59,0.01,0.05,0.01
7:19:23 PM,-0.54,-9.19,-3.35,-0.01,0.01,0.01
7:19:23 PM,0.01,-9.13,-3.08,-0.07,-0.06,0.01
7:19:23 PM,-0.45,-9.16,-3.63,-0.00,-0.05,0.01
7:19:23 PM,-0.26,-9.23,-3.51,-0.00,0.03,0.01
7:19:23 PM,-0.29,-9.31,-3.61,0.02,-0.01,0.01
7:19:23 PM,-0.14,-9.10,-3.70,-0.03,-0.03,0.01
7:19:23 PM,-0.41,-9.18,-3.69,0.03,-0.03,0.01
7:19:24 PM,-0.20,-9.16,-3.48,0.10,0.07,0.01
7:19:24 PM,-0.14,-9.31,-3.19,0.03,-0.04,0.01
7:19:24 PM,-0.41,-9.18,-3.55,0.02,-0.04,0.01
7:19:24 PM,-0.08,-9.08,-3.64,0.01,-0.07,0.01
7:19:24 PM,-0.30,-9.22,-3.52,-0.04,-0.10,0.01
7:19:24 PM,-0.47,-9.17,-3.66,0.02,0.06,0.01
7:19:24 PM,-0.13,-9.17,-3.49,-0.01,0.02,0.01
7:19:24 PM,-0.13,-9.26,-3.65,0.03,0.04,0.01
7:19:24 PM,-0.24,-9.26,-3.53,0.02,0.10,0.01
7:19:24 PM,-0.13,-9.21,-3.64,0.11,0.02,0.01
7:19:25 PM,-0.10,-9.22,-3.47,0.03,-0.09,0.01
7:19:25 PM,-0.20,-9.13,-3.59,0.01,-0.01,0.01
7:19:25 PM,-0.28,-9.05,-3.56,-0.03,-0.05,0.01
7:19:25 PM,-0.12,-9.26,-3.24,0.04,0.02,0.01
7:19:25 PM,-0.22,-9.25,-3.39,0.04,0.01,0.01
7:19:25 PM,-0.14,-9.24,-3.52,0.03,-0.04,0.01
7:19:25 PM,-0.33,-9.20,-3.51,-0.03,-0.10,0.01
7:19:25 PM,-0.19,-9.21,-3.45,0.04,-0.00,0.01
7:19:25 PM,-0.24,-9.08,-3.59,-0.06,-0.12,0.01
7:19:26 PM,-0.33,-9.14,-3.68,0.02,-0.01,0.01
7:19:26 PM,-0.20,-9.21,-3.49,-0.02,-0.05,0.01
7:19:26 PM,-0.36,-9.21,-3.48,0.03,0.08,0.01
7:19:26 PM,-0.11,-9.12,-3.50,0.05,0.08,0.01
7:19:26 PM,-0.16,-9.12,-3.44,-0.00,0.01,0.01
7:19:26 PM,-0.19,-9.17,-3.53,-0.02,-0.04,0.01
7:19:26 PM,-0.10,-9.11,-3.53,0.03,-0.04,0.01
7:19:26 PM,-0.07,-9.17,-3.36,-0.02,-0.07,0.01
7:19:26 PM,-0.26,-9.11,-3.65,0.02,0.01,0.01
7:19:26 PM,-0.18,-9.26,-3.39,0.01,-0.01,0.01
7:19:27 PM,-0.19,-9.32,-3.25,0.02,0.01,0.01
7:19:27 PM,-0.14,-9.18,-3.46,0.02,0.02,0.01
7:19:27 PM,-0.29,-9.19,-3.35,0.02,-0.04,0.01
7:19:27 PM,-0.12,-9.10,-3.58,0.03,0.02,0.01
7:19:27 PM,-0.05,-9.28,-3.46,-0.03,0.02,0.01
7:19:27 PM,0.14,-9.19,-3.87,-0.00,0.04,0.01
7:19:27 PM,-0.11,-9.20,-3.13,0.09,0.01,0.01
7:19:27 PM,0.25,-9.14,-3.50,0.13,0.10,0.01
7:19:27 PM,-0.01,-9.22,-3.15,-0.01,-0.05,0.01
7:19:28 PM,0.04,-9.17,-3.25,-0.04,-0.07,0.01
7:19:28 PM,0.06,-9.26,-3.42,0.00,0.01,0.01
7:19:28 PM,-0.08,-9.13,-3.42,0.06,0.06,0.01
7:19:28 PM,-0.10,-9.12,-3.45,-0.01,-0.02,0.01
7:19:28 PM,-0.03,-9.28,-3.45,-0.03,-0.05,0.01
7:19:28 PM,-0.15,-9.16,-3.59,0.03,0.03,0.01
7:19:28 PM,-0.08,-9.17,-3.37,-0.04,-0.08,0.01
7:19:28 PM,-0.13,-9.21,-3.31,0.02,0.02,0.01
7:19:28 PM,-0.19,-9.20,-3.39,-0.01,-0.07,0.01
7:19:28 PM,-0.07,-9.15,-3.48,0.05,0.08,0.01
7:19:29 PM,-0.09,-8.93,-3.32,-0.01,-0.07,0.01
7:19:29 PM,-0.24,-9.14,-3.33,-0.02,-0.11,0.01
7:19:29 PM,-0.04,-9.09,-3.67,0.09,0.04,0.01
7:19:29 PM,-0.18,-9.26,-3.17,0.02,0.06,0.01
7:19:29 PM,0.06,-9.30,-3.34,-0.02,-0.07,0.01
7:19:29 PM,-0.13,-9.13,-3.51,-0.14,-0.02,0.01
7:19:29 PM,-0.19,-9.28,-3.42,0.04,0.07,0.01
7:19:29 PM,-0.18,-8.94,-3.20,-0.04,-0.05,0.01
7:19:29 PM,-0.28,-9.26,-3.49,-0.03,-0.06,0.01
7:19:30 PM,-0.15,-9.11,-3.65,0.00,-0.01,0.01
7:19:30 PM,-0.12,-9.04,-3.76,-0.06,-0.01,0.01
7:19:30 PM,-0.14,-9.21,-3.33,0.10,-0.09,0.01
7:19:30 PM,-0.05,-9.17,-3.33,0.13,-0.04,0.01
7:19:30 PM,0.07,-9.22,-3.45,0.00,0.04,0.01
7:19:30 PM,-0.22,-9.27,-3.28,0.02,0.01,0.01
7:19:30 PM,-0.02,-9.20,-3.34,0.01,-0.10,0.01
7:19:30 PM,0.26,-9.21,-3.36,0.06,-0.03,0.01
7:19:30 PM,-0.11,-9.17,-3.23,0.01,-0.01,0.01
7:19:30 PM,-0.03,-9.30,-3.18,0.02,-0.05,0.01
7:19:31 PM,0.03,-9.21,-3.11,-0.00,-0.00,0.01
7:19:31 PM,-0.03,-9.39,-3.21,-0.01,-0.00,0.01
7:19:31 PM,0.06,-9.26,-3.37,-0.02,-0.05,0.01
7:19:31 PM,0.10,-9.31,-3.17,-0.00,-0.03,0.01
7:19:31 PM,0.15,-9.25,-3.20,-0.01,-0.05,0.01
7:19:31 PM,-0.06,-9.30,-3.15,-0.01,-0.01,0.01
7:19:31 PM,-0.14,-9.16,-3.36,0.05,0.07,0.01
7:19:31 PM,0.02,-9.23,-3.31,-0.00,-0.05,0.01
7:19:31 PM,-0.14,-9.17,-3.28,0.03,-0.00,0.01
7:19:32 PM,0.01,-9.25,-3.24,0.04,0.03,0.01
7:19:32 PM,-0.27,-9.16,-3.26,0.01,-0.03,0.01
7:19:32 PM,-0.05,-9.34,-3.39,0.07,0.12,0.01
7:19:32 PM,0.32,-9.33,-3.26,-0.03,-0.03,0.01
7:19:32 PM,0.13,-9.24,-3.27,-0.05,-0.10,0.01
7:19:32 PM,-0.13,-9.23,-3.20,0.06,0.01,0.01
7:19:32 PM,0.07,-9.19,-3.33,0.00,-0.05,0.01
7:19:32 PM,-0.11,-9.28,-3.29,0.02,0.12,0.01
7:19:32 PM,-0.16,-9.29,-3.12,0.07,-0.01,0.01
7:19:33 PM,-0.04,-9.21,-3.27,0.02,-0.06,0.01
7:19:33 PM,-0.07,-9.31,-3.15,0.04,0.00,0.01
7:19:33 PM,0.10,-9.35,-3.03,0.03,-0.02,0.01
7:19:33 PM,-0.28,-9.24,-3.16,-0.01,-0.08,0.01
7:19:33 PM,-0.02,-9.25,-3.34,-0.01,0.02,0.01
7:19:33 PM,0.00,-9.16,-3.34,-0.00,-0.02,0.01
7:19:33 PM,0.04,-9.26,-3.25,-0.01,-0.07,0.01
7:19:33 PM,-0.03,-9.16,-3.32,0.02,0.02,0.01
7:19:33 PM,-0.10,-9.22,-3.21,0.01,-0.05,0.01
7:19:33 PM,-0.12,-9.11,-3.09,-0.00,-0.09,0.01
7:19:34 PM,-0.14,-9.16,-3.14,-0.04,-0.16,0.01
7:19:34 PM,-0.16,-9.07,-3.18,-0.01,-0.07,0.01
7:19:34 PM,-0.10,-9.23,-3.07,0.01,-0.02,0.01
7:19:34 PM,-0.14,-9.27,-3.18,0.01,-0.05,0.01
7:19:34 PM,-0.00,-9.27,-3.41,0.03,0.02,0.01
7:19:34 PM,-0.13,-9.21,-3.16,0.00,-0.05,0.01
7:19:34 PM,-0.05,-9.23,-3.29,-0.01,-0.03,0.01
7:19:34 PM,-0.23,-9.24,-3.27,0.02,0.02,0.01
7:19:34 PM,-0.03,-9.30,-3.14,-0.00,0.01,0.01
7:19:35 PM,-0.01,-9.26,-3.36,-0.00,-0.05,0.01
7:19:35 PM,-0.09,-9.24,-3.33,0.02,0.03,0.01
7:19:35 PM,-0.24,-9.15,-3.35,0.04,-0.01,0.01
7:19:35 PM,-0.18,-9.19,-3.29,0.02,0.01,0.01
7:19:35 PM,-0.19,-9.16,-3.20,0.01,-0.05,0.01
7:19:35 PM,-0.05,-9.23,-3.32,0.00,0.01,0.01
7:19:35 PM,-0.11,-9.24,-3.24,-0.01,-0.04,0.01
7:19:35 PM,-0.06,-9.23,-3.34,0.04,0.03,0.01
7:19:35 PM,-0.26,-9.14,-3.18,0.04,-0.02,0.01
7:19:35 PM,-0.16,-9.11,-3.23,-0.02,-0.07,0.01
7:19:36 PM,-0.12,-9.37,-3.16,0.00,-0.00,0.01
7:19:36 PM,-0.15,-9.26,-3.22,0.02,0.04,0.01
7:19:36 PM,-0.03,-9.22,-3.39,0.01,-0.03,0.01
7:19:36 PM,-0.21,-9.20,-3.29,0.02,-0.01,0.01
7:19:36 PM,-0.05,-9.30,-3.13,-0.00,-0.08,0.01
7:19:36 PM,-0.07,-9.33,-3.24,-0.00,-0.02,0.01
7:19:36 PM,0.12,-9.30,-3.29,-0.00,0.03,0.01
7:19:36 PM,-0.08,-9.14,-3.18,0.01,-0.08,0.01
7:19:36 PM,-0.08,-9.21,-3.22,0.03,-0.00,0.01
7:19:37 PM,-0.17,-9.22,-3.22,0.01,-0.02,0.01
7:19:37 PM,-0.25,-9.25,-3.32,0.01,0.01,0.01
7:19:37 PM,-0.19,-9.20,-3.18,0.03,-0.03,0.01
7:19:37 PM,-0.06,-9.26,-3.27,-0.01,-0.05,0.01
7:19:37 PM,-0.19,-9.26,-3.11,-0.01,-0.07,0.01
7:19:37 PM,-0.02,-9.24,-3.23,0.02,-0.08,0.01
7:19:37 PM,-0.12,-9.22,-3.29,-0.01,-0.07,0.01
7:19:37 PM,-0.18,-9.30,-3.14,0.03,0.04,0.01
7:19:37 PM,-0.03,-9.29,-3.21,0.01,0.03,0.01
7:19:37 PM,-0.28,-9.22,-3.25,0.02,-0.00,0.01
7:19:38 PM,-0.12,-9.25,-3.17,0.01,0.03,0.01
7:19:38 PM,-0.05,-9.28,-3.18,0.00,-0.03,0.01
7:19:38 PM,-0.14,-9.25,-3.10,-0.00,-0.02,0.01
7:19:38 PM,-0.07,-9.21,-3.25,0.01,-0.02,0.01
7:19:38 PM,-0.15,-9.24,-3.33,0.01,0.01,0.01
7:19:38 PM,-0.23,-9.30,-3.12,0.01,-0.01,0.01
7:19:38 PM,-0.13,-9.16,-3.32,0.02,-0.00,0.01
7:19:38 PM,-0.16,-9.28,-3.31,-0.01,-0.03,0.01
7:19:39 PM,-0.11,-9.21,-3.26,-0.01,-0.06,0.01
7:19:39 PM,-0.14,-9.22,-3.31,-0.02,-0.04,0.01
7:19:39 PM,-0.16,-9.20,-3.40,0.02,0.03,0.01
7:19:39 PM,-0.29,-9.51,-2.84,0.13,0.02,0.01
7:19:39 PM,-0.15,-8.98,-3.49,0.21,0.06,0.01
7:19:39 PM,-0.12,-9.02,-2.43,0.01,-0.03,0.01
7:19:39 PM,-0.12,-9.25,-2.82,0.00,-0.05,0.01
7:19:39 PM,-0.10,-9.45,-2.72,0.00,-0.02,0.01
7:19:39 PM,-0.39,-9.18,-3.10,-0.02,0.22,0.01
7:19:39 PM,-0.13,-9.26,-2.98,0.01,-0.03,0.01
7:19:39 PM,-0.05,-9.34,-2.72,0.02,0.00,0.01
7:19:40 PM,-0.10,-9.27,-2.91,0.03,0.02,0.01
7:19:40 PM,-0.13,-9.33,-2.80,0.01,0.02,0.01
7:19:40 PM,-0.22,-9.32,-2.71,-0.01,-0.07,0.01
7:19:40 PM,-0.07,-9.33,-2.80,0.02,-0.04,0.01
7:19:40 PM,-0.03,-9.36,-2.80,0.01,0.00,0.01
7:19:40 PM,0.04,-9.30,-3.02,0.01,-0.00,0.01
7:19:40 PM,-0.10,-9.28,-2.94,0.00,0.00,0.01
7:19:40 PM,-0.01,-9.28,-3.04,-0.03,0.02,0.01
7:19:40 PM,-0.20,-9.33,-2.71,0.02,0.03,0.01
7:19:41 PM,-0.10,-9.28,-2.96,0.03,0.00,0.01
7:19:41 PM,-0.51,-9.21,-3.02,-0.01,0.13,0.01
7:19:41 PM,-0.10,-9.39,-2.71,0.00,-0.12,0.01
7:19:41 PM,-0.20,-9.36,-2.91,-0.00,-0.03,0.01
7:19:41 PM,-0.16,-9.39,-2.72,0.01,-0.01,0.01
7:19:41 PM,-0.06,-9.34,-2.97,0.05,0.04,0.01
7:19:41 PM,0.03,-9.42,-2.80,-0.00,-0.05,0.01
7:19:41 PM,-0.08,-9.27,-2.81,-0.01,-0.02,0.01
7:19:41 PM,-0.15,-9.28,-2.87,0.01,-0.02,0.01
7:19:41 PM,-0.20,-9.28,-2.81,-0.00,-0.05,0.01
7:19:42 PM,-0.27,-9.30,-2.82,-0.00,-0.04,0.01
7:19:42 PM,-0.33,-9.22,-2.78,0.02,-0.07,0.01
7:19:42 PM,-0.17,-9.25,-2.86,0.02,-0.07,0.01
7:19:42 PM,-0.04,-9.37,-2.86,-0.01,-0.04,0.01
7:19:42 PM,-0.23,-9.27,-2.89,0.01,-0.05,0.01
7:19:42 PM,-0.23,-9.27,-3.00,-0.00,-0.05,0.01
7:19:42 PM,-0.23,-9.25,-3.00,0.01,-0.02,0.01
7:19:42 PM,-0.32,-9.15,-2.92,0.04,0.03,0.01
7:19:42 PM,-0.22,-9.27,-2.83,0.01,-0.01,0.01
7:19:43 PM,-0.28,-9.28,-2.94,0.00,0.01,0.01
7:19:43 PM,-0.28,-9.24,-2.86,-0.01,-0.09,0.01
7:19:43 PM,-0.23,-9.28,-2.99,-0.02,-0.13,0.01
7:19:43 PM,-0.25,-9.29,-3.05,0.01,0.01,0.01
7:19:43 PM,-0.22,-9.28,-2.80,-0.00,-0.08,0.01
7:19:43 PM,-0.33,-9.31,-2.91,-0.00,-0.06,0.01
7:19:43 PM,-0.21,-9.30,-2.97,0.01,-0.03,0.01
7:19:43 PM,-0.23,-9.29,-2.93,0.02,0.02,0.01
7:19:43 PM,-0.10,-9.34,-2.79,-0.02,-0.06,0.01
7:19:43 PM,-0.23,-9.32,-2.90,0.02,0.01,0.01
7:19:44 PM,-0.11,-9.31,-2.93,0.03,0.01,0.01
7:19:44 PM,-0.22,-9.32,-2.93,-0.01,-0.01,0.01
7:19:44 PM,-0.20,-9.23,-3.08,-0.01,-0.05,0.01
7:19:44 PM,-0.30,-9.25,-2.82,0.02,-0.09,0.01
7:19:44 PM,0.01,-9.31,-2.89,0.02,-0.03,0.01
7:19:44 PM,-0.24,-9.28,-2.82,0.02,0.00,0.01
7:19:44 PM,-0.12,-9.32,-2.91,0.02,-0.04,0.01
7:19:44 PM,-0.17,-9.30,-3.02,0.00,-0.06,0.01
7:19:44 PM,-0.16,-9.36,-2.95,0.01,-0.02,0.01
7:19:45 PM,-0.29,-9.24,-2.92,0.00,0.01,0.01
7:19:45 PM,-0.28,-9.24,-2.97,0.01,0.01,0.01
7:19:45 PM,-0.26,-9.37,-2.90,0.01,0.03,0.01
7:19:45 PM,0.07,-9.38,-3.00,0.03,0.07,0.01
7:19:45 PM,-0.29,-9.32,-2.86,-0.03,-0.06,0.01
7:19:45 PM,-0.28,-9.28,-3.05,0.01,0.01,0.01
7:19:45 PM,-0.20,-9.29,-3.05,0.00,-0.00,0.01
7:19:45 PM,-0.27,-9.28,-2.98,-0.01,-0.01,0.01
7:19:45 PM,-0.19,-9.34,-3.02,0.01,0.01,0.01
7:19:46 PM,-0.13,-9.31,-3.05,0.01,-0.03,0.01
7:19:46 PM,-0.41,-9.33,-2.98,0.03,0.03,0.01
7:19:46 PM,-0.22,-9.31,-3.08,0.02,-0.02,0.01
7:19:46 PM,-0.11,-9.33,-2.88,-0.00,-0.00,0.01
7:19:46 PM,-0.20,-9.33,-2.85,0.00,-0.04,0.01
7:19:46 PM,-0.21,-9.33,-2.90,0.02,-0.05,0.01
7:19:46 PM,-0.18,-9.26,-3.09,0.00,-0.03,0.01
7:19:46 PM,-0.28,-9.27,-2.95,-0.00,-0.03,0.01
7:19:46 PM,-0.20,-9.33,-2.95,-0.00,-0.03,0.01
7:19:46 PM,-0.27,-9.31,-2.95,-0.00,-0.03,0.01
7:19:47 PM,-0.18,-9.38,-2.82,0.03,0.01,0.01
7:19:47 PM,-0.19,-9.34,-3.00,0.03,-0.00,0.01
7:19:47 PM,-0.29,-9.31,-2.93,0.01,-0.05,0.01
7:19:47 PM,-0.17,-9.28,-3.01,-0.00,-0.08,0.01
7:19:47 PM,-0.14,-9.36,-2.94,-0.02,-0.04,0.01
7:19:47 PM,-0.30,-9.30,-3.02,0.01,0.03,0.01
7:19:47 PM,-0.27,-9.28,-2.94,0.01,-0.05,0.01
7:19:47 PM,-0.20,-9.32,-3.05,-0.00,-0.03,0.01
7:19:47 PM,-0.31,-9.27,-2.98,0.00,-0.02,0.01
7:19:48 PM,-0.22,-9.29,-2.94,-0.05,-0.10,0.01
7:19:48 PM,-0.19,-9.34,-3.14,-0.01,-0.04,0.01
7:19:48 PM,-0.40,-9.28,-3.03,-0.00,-0.04,0.01
7:19:48 PM,-0.14,-9.33,-3.13,0.04,0.05,0.01
7:19:48 PM,-0.21,-9.25,-2.96,0.02,0.08,0.01
7:19:48 PM,-0.29,-9.31,-2.97,0.01,0.01,0.01
7:19:48 PM,-0.13,-9.33,-2.97,0.00,0.02,0.01
7:19:48 PM,-0.29,-9.26,-3.12,-0.00,-0.03,0.01
7:19:48 PM,-0.17,-9.37,-3.26,0.00,-0.01,0.01
7:19:48 PM,-0.16,-9.30,-3.27,0.05,0.07,0.01
7:19:49 PM,-0.18,-9.25,-3.11,0.02,0.03,0.01
7:19:49 PM,-0.34,-9.23,-3.11,-0.00,-0.06,0.01
7:19:49 PM,-0.11,-9.31,-2.99,0.02,0.01,0.01
7:19:49 PM,-0.31,-9.29,-3.09,0.03,0.01,0.01
7:19:49 PM,-0.11,-9.33,-3.08,0.01,0.01,0.01
7:19:49 PM,-0.20,-9.23,-3.15,-0.03,0.01,0.01
7:19:49 PM,-0.37,-9.28,-3.19,0.01,0.05,0.01
7:19:49 PM,-0.09,-9.31,-3.16,0.03,0.01,0.01
7:19:49 PM,-0.21,-9.27,-3.16,0.01,-0.02,0.01
7:19:50 PM,-0.33,-9.25,-3.14,0.03,-0.01,0.01
7:19:50 PM,-0.25,-9.27,-3.14,0.04,0.03,0.01
7:19:50 PM,-0.25,-9.27,-2.95,0.02,0.03,0.01
7:19:50 PM,-0.33,-9.26,-3.07,0.01,0.00,0.01
7:19:50 PM,-0.23,-9.26,-3.14,-0.03,-0.08,0.01
7:19:50 PM,-0.32,-9.25,-3.04,0.02,0.01,0.01
7:19:50 PM,-0.29,-9.31,-3.16,0.01,-0.01,0.01
7:19:50 PM,-0.22,-9.31,-3.08,-0.01,-0.05,0.01
7:19:50 PM,-0.23,-9.28,-3.31,-0.01,-0.10,0.01
7:19:50 PM,-0.34,-9.17,-3.12,0.01,0.01,0.01
7:19:51 PM,-0.33,-9.26,-3.11,-0.01,-0.06,0.01
7:19:51 PM,-0.45,-9.28,-3.09,0.00,-0.05,0.01
7:19:51 PM,-0.32,-9.27,-3.23,-0.00,-0.02,0.01
7:19:51 PM,-0.59,-9.28,-3.26,-0.02,-0.09,0.01
7:19:51 PM,-0.40,-9.26,-3.34,0.03,0.03,0.01
7:19:51 PM,-0.52,-9.23,-3.13,0.02,0.05,0.01
7:19:51 PM,-0.61,-9.25,-3.13,-0.00,-0.01,0.01
7:19:51 PM,-0.41,-9.23,-3.14,-0.01,-0.03,0.01
7:19:51 PM,-0.26,-9.32,-3.32,0.01,0.01,0.01
7:19:52 PM,-0.53,-9.29,-3.23,0.02,0.02,0.01
7:19:52 PM,-0.42,-9.26,-3.18,0.04,0.04,0.01
7:19:52 PM,-0.39,-9.24,-3.11,0.00,-0.05,0.01
7:19:52 PM,-0.40,-9.30,-3.17,0.01,0.01,0.01
7:19:52 PM,-0.39,-9.33,-3.31,0.06,0.10,0.01
7:19:52 PM,-0.48,-9.27,-3.00,0.04,0.02,0.01
7:19:52 PM,-0.51,-9.30,-3.17,-0.01,-0.04,0.01
7:19:52 PM,-0.42,-9.21,-3.09,-0.02,-0.03,0.01
7:19:52 PM,-0.38,-9.25,-3.33,-0.02,-0.05,0.01
7:19:52 PM,-0.46,-9.25,-3.28,0.00,-0.04,0.01
7:19:53 PM,-0.51,-9.27,-3.19,0.01,-0.06,0.01
7:19:53 PM,-0.44,-9.36,-3.17,0.03,0.03,0.01
7:19:53 PM,-0.48,-9.28,-3.27,-0.00,0.01,0.01
7:19:53 PM,-0.48,-9.17,-3.32,0.05,0.03,0.01
7:19:53 PM,-0.53,-9.25,-3.17,0.00,-0.05,0.01
7:19:53 PM,-0.58,-9.25,-3.17,0.03,-0.01,0.01
7:19:53 PM,-0.53,-9.28,-3.30,0.03,0.04,0.01
7:19:53 PM,-0.55,-9.28,-3.29,0.02,-0.00,0.01
7:19:53 PM,-0.43,-9.27,-3.30,0.03,0.03,0.01
7:19:54 PM,-0.55,-9.27,-3.06,0.01,-0.01,0.01
7:19:54 PM,-0.63,-9.22,-3.27,0.05,0.08,0.01
7:19:54 PM,-0.50,-9.26,-3.11,0.04,0.01,0.01
7:19:54 PM,-0.42,-9.27,-3.23,0.00,-0.05,0.01
7:19:54 PM,-0.47,-9.25,-3.22,-0.02,-0.05,0.01
7:19:54 PM,-0.55,-9.22,-3.11,0.01,0.01,0.01
7:19:54 PM,-0.46,-9.26,-3.17,0.03,-0.01,0.01
7:19:54 PM,-0.36,-9.26,-3.19,0.01,-0.04,0.01
7:19:54 PM,-0.55,-9.23,-3.03,0.03,0.01,0.01
7:19:54 PM,-0.35,-9.29,-3.32,0.04,0.03,0.01
7:19:55 PM,-0.48,-9.29,-3.10,0.01,0.00,0.01
7:19:55 PM,-0.48,-9.25,-3.02,0.01,-0.01,0.01
7:19:55 PM,-0.48,-9.28,-3.10,-0.03,-0.07,0.01
7:19:55 PM,-0.49,-9.25,-3.10,-0.01,-0.03,0.01
7:19:55 PM,-0.29,-9.20,-3.33,0.03,0.04,0.01
7:19:55 PM,-0.45,-9.25,-3.12,-0.02,-0.04,0.01
7:19:55 PM,-0.59,-9.26,-3.22,-0.01,-0.05,0.01
7:19:55 PM,-0.53,-9.24,-3.18,0.01,-0.01,0.01
7:19:55 PM,-0.41,-9.24,-3.23,-0.03,0.00,0.01
7:19:56 PM,-0.44,-9.32,-3.24,0.03,0.04,0.01
7:19:56 PM,-0.49,-9.25,-3.15,0.02,-0.02,0.01
7:19:56 PM,-0.48,-9.26,-3.19,0.01,0.04,0.01
7:19:56 PM,-0.28,-9.30,-3.04,0.01,-0.02,0.01
7:19:56 PM,-0.39,-9.23,-3.13,0.00,0.00,0.01
7:19:56 PM,-0.47,-9.23,-3.19,0.03,-0.01,0.01
7:19:56 PM,-0.42,-9.27,-3.22,0.02,-0.00,0.01
7:19:56 PM,-0.43,-9.27,-3.09,0.02,-0.02,0.01
7:19:56 PM,-0.41,-9.29,-3.21,0.01,0.01,0.01
7:19:56 PM,-0.39,-9.30,-3.27,0.01,0.02,0.01
7:19:57 PM,-0.45,-9.25,-3.32,0.01,-0.01,0.01
7:19:57 PM,-0.43,-9.36,-3.38,0.04,0.02,0.01
7:19:57 PM,-0.46,-9.27,-3.13,0.02,-0.02,0.01
7:19:57 PM,-0.53,-9.19,-3.34,-0.01,-0.04,0.01
7:19:57 PM,-0.59,-9.23,-3.10,0.03,0.01,0.01
7:19:57 PM,-0.38,-9.27,-3.16,0.00,-0.01,0.01
7:19:57 PM,-0.43,-9.27,-3.28,0.01,-0.00,0.01
7:19:57 PM,-0.47,-9.27,-3.14,0.01,-0.01,0.01
7:19:57 PM,-0.51,-9.28,-3.08,0.02,0.06,0.01
7:19:58 PM,-0.34,-9.22,-3.32,0.03,0.01,0.01
7:19:58 PM,-0.43,-9.27,-3.20,-0.02,-0.08,0.01
7:19:58 PM,-0.52,-9.25,-3.20,0.01,0.02,0.01
7:19:58 PM,-0.38,-9.30,-3.17,0.02,0.04,0.01
7:19:58 PM,-0.47,-9.26,-3.05,0.01,-0.03,0.01
7:19:58 PM,-0.30,-9.36,-3.08,0.02,-0.01,0.01
7:19:58 PM,-0.41,-9.27,-3.06,0.01,-0.02,0.01
7:19:58 PM,-0.43,-9.26,-3.22,0.03,-0.00,0.01
7:19:58 PM,-0.34,-9.29,-3.25,0.03,-0.01,0.01
7:19:59 PM,-0.35,-9.27,-3.21,-0.02,-0.04,0.01
7:19:59 PM,-0.42,-9.28,-3.12,0.01,-0.03,0.01
7:19:59 PM,-0.41,-9.23,-3.27,0.03,0.03,0.01
7:19:59 PM,-0.36,-9.28,-3.09,0.00,-0.03,0.01
7:19:59 PM,-0.49,-9.22,-3.16,-0.00,-0.04,0.01
7:19:59 PM,-0.49,-9.25,-3.26,0.00,-0.04,0.01
7:19:59 PM,-0.50,-9.26,-3.08,-0.00,-0.01,0.01
7:19:59 PM,-0.35,-9.28,-3.07,0.01,-0.01,0.01
7:19:59 PM,-0.48,-9.25,-3.24,0.02,0.02,0.01
7:19:59 PM,-0.40,-9.29,-3.22,0.01,0.01,0.01
7:20:00 PM,-0.45,-9.26,-3.18,0.01,-0.01,0.01
7:20:00 PM,-0.41,-9.28,-3.27,0.02,-0.00,0.01
7:20:00 PM,-0.49,-9.30,-3.13,0.03,0.01,0.01
7:20:00 PM,-0.38,-9.27,-3.11,0.02,-0.04,0.01
7:20:00 PM,-0.44,-9.26,-3.11,0.00,-0.08,0.01
7:20:00 PM,-0.38,-9.31,-3.01,0.02,-0.02,0.01
7:20:00 PM,-0.30,-9.28,-3.16,0.00,-0.04,0.01
7:20:00 PM,-0.47,-9.29,-3.03,0.02,0.00,0.01
7:20:00 PM,-0.37,-9.30,-3.05,0.01,-0.01,0.01
7:20:01 PM,-0.43,-9.33,-3.06,-0.02,-0.09,0.01
7:20:01 PM,-0.36,-9.31,-3.13,-0.00,-0.04,0.01
7:20:01 PM,-0.45,-9.32,-3.18,0.00,-0.01,0.01
7:20:01 PM,-0.43,-9.30,-3.12,0.01,-0.04,0.01
7:20:01 PM,-0.50,-9.25,-3.12,0.01,-0.03,0.01
7:20:01 PM,-0.37,-9.30,-3.16,0.02,0.01,0.01
7:20:01 PM,-0.39,-9.32,-3.13,0.01,0.00,0.01
7:20:01 PM,-0.38,-9.29,-3.22,0.02,0.02,0.01
7:20:01 PM,-0.49,-9.28,-3.16,0.01,0.01,0.01
7:20:01 PM,-0.52,-9.26,-3.13,0.02,-0.01,0.01
7:20:02 PM,-0.50,-9.20,-3.10,0.03,0.02,0.01
7:20:02 PM,-0.41,-9.27,-3.01,-0.02,-0.10,0.01
7:20:02 PM,-0.38,-9.32,-3.16,0.00,-0.05,0.01
7:20:02 PM,-0.44,-9.28,-3.11,0.01,-0.03,0.01
7:20:02 PM,-0.50,-9.23,-3.12,0.01,0.05,0.01
7:20:02 PM,-0.41,-9.27,-3.21,0.04,0.10,0.01
7:20:02 PM,-0.39,-9.30,-3.11,-0.00,-0.18,0.01
7:20:02 PM,-0.51,-9.22,-3.25,0.03,-0.05,0.01
7:20:02 PM,-0.44,-9.28,-3.05,0.03,0.07,0.01
7:20:03 PM,-0.28,-9.34,-3.24,0.01,0.06,0.01
7:20:03 PM,-0.23,-9.31,-3.18,-0.01,-0.11,0.01
7:20:03 PM,-0.40,-9.21,-3.21,0.02,-0.04,0.01
7:20:03 PM,-0.42,-9.26,-3.17,0.00,-0.02,0.01
7:20:03 PM,-0.54,-9.20,-3.15,0.01,-0.03,0.01
7:20:03 PM,-0.36,-9.26,-3.12,-0.01,-0.07,0.01
7:20:03 PM,-0.35,-9.29,-3.11,0.01,-0.02,0.01
7:20:03 PM,-0.48,-9.24,-3.09,0.00,-0.06,0.01
7:20:03 PM,-0.46,-9.27,-3.22,0.02,0.08,0.01
7:20:03 PM,-0.54,-9.41,-3.03,-0.03,-0.03,0.01
7:20:04 PM,-0.52,-9.29,-3.15,0.04,-0.00,0.01
7:20:04 PM,-0.42,-9.28,-3.05,0.02,-0.02,0.01
7:20:04 PM,-0.30,-9.23,-3.37,0.01,0.10,0.01
7:20:04 PM,-0.51,-9.25,-3.33,0.00,-0.00,0.01
7:20:04 PM,-0.34,-9.29,-3.16,0.02,-0.02,0.01
7:20:04 PM,-0.50,-9.22,-3.10,-0.01,-0.02,0.01
7:20:04 PM,-0.30,-9.31,-2.89,-0.01,-0.09,0.01
7:20:04 PM,-0.34,-9.23,-2.95,0.02,-0.06,0.01
7:20:04 PM,-0.34,-9.30,-3.12,-0.00,-0.07,0.01
7:20:05 PM,-0.47,-9.24,-3.12,0.00,-0.03,0.01
7:20:05 PM,-0.46,-9.24,-2.96,-0.01,-0.05,0.01
7:20:05 PM,-0.53,-9.24,-3.06,-0.00,-0.03,0.01
7:20:05 PM,-0.42,-9.27,-3.00,-0.01,-0.08,0.01
7:20:05 PM,-0.42,-9.28,-3.00,-0.01,-0.06,0.01
7:20:05 PM,-0.49,-9.28,-3.09,0.01,-0.04,0.01
7:20:05 PM,-0.32,-9.27,-3.20,-0.03,-0.08,0.01
7:20:05 PM,-0.28,-9.30,-3.22,-0.01,-0.05,0.01
7:20:05 PM,-0.45,-9.23,-3.18,-0.01,-0.03,0.01
7:20:05 PM,-0.32,-9.29,-3.08,0.01,-0.04,0.01
7:20:06 PM,-0.25,-9.34,-3.18,-0.01,-0.00,0.01
7:20:06 PM,-0.39,-9.28,-3.27,0.04,0.05,0.01
7:20:06 PM,-0.51,-9.17,-3.18,0.01,-0.03,0.01
7:20:06 PM,-0.39,-9.27,-2.91,-0.02,-0.13,0.01
7:20:06 PM,-0.35,-9.29,-3.13,0.01,-0.04,0.01
7:20:06 PM,-0.47,-9.23,-3.14,0.01,-0.01,0.01
7:20:06 PM,-0.39,-9.35,-2.97,0.04,0.00,0.01
7:20:06 PM,-0.32,-9.24,-3.13,0.02,-0.04,0.01
7:20:06 PM,-0.33,-9.32,-3.23,-0.01,-0.00,0.01
7:20:07 PM,-0.41,-9.33,-3.13,0.03,0.03,0.01
7:20:07 PM,-0.33,-9.33,-3.22,-0.02,-0.02,0.01
7:20:07 PM,-0.75,-9.19,-3.18,0.01,0.04,0.01
7:20:07 PM,-0.56,-9.25,-3.17,0.02,0.02,0.01
7:20:07 PM,-0.46,-9.24,-3.21,0.02,0.00,0.01
7:20:07 PM,-0.36,-9.27,-3.13,-0.01,-0.01,0.01
7:20:07 PM,-0.45,-9.26,-3.14,0.00,-0.03,0.01
7:20:07 PM,-0.36,-9.31,-3.28,0.02,0.03,0.01
7:20:07 PM,-0.56,-9.18,-3.25,0.01,0.04,0.01
7:20:07 PM,-0.58,-9.20,-3.17,0.00,-0.02,0.01
7:20:08 PM,-0.35,-9.29,-3.21,-0.01,0.01,0.01
7:20:08 PM,-0.42,-9.24,-3.35,0.01,-0.06,0.01
7:20:08 PM,-0.44,-9.29,-3.18,0.01,-0.03,0.01
7:20:08 PM,-0.55,-9.28,-3.15,0.01,0.03,0.01
7:20:08 PM,-0.43,-9.25,-3.24,0.00,0.00,0.01
7:20:08 PM,-0.37,-9.25,-3.27,0.01,-0.01,0.01
7:20:08 PM,-0.37,-9.38,-3.12,-0.00,-0.03,0.01
7:20:08 PM,-0.40,-9.31,-3.22,0.04,-0.00,0.01
7:20:08 PM,-0.27,-9.29,-3.39,-0.02,-0.02,0.01
7:20:09 PM,-0.44,-9.29,-3.14,-0.01,-0.02,0.01
7:20:09 PM,-0.36,-9.25,-3.34,0.03,0.04,0.01
7:20:09 PM,-0.38,-9.28,-3.26,-0.03,0.01,0.01
7:20:09 PM,-0.57,-9.26,-3.12,0.03,0.02,0.01
7:20:09 PM,-0.47,-9.23,-3.14,0.05,0.05,0.01
7:20:09 PM,-0.15,-9.18,-3.47,0.05,-0.00,0.01
7:20:09 PM,-0.35,-9.18,-3.31,-0.01,-0.05,0.01
7:20:09 PM,-0.43,-9.28,-3.23,0.03,0.00,0.01
7:20:09 PM,-0.43,-9.30,-3.31,0.00,-0.09,0.01
7:20:10 PM,-0.68,-9.28,-2.94,0.04,-0.11,0.01
7:20:10 PM,-0.73,-9.23,-3.18,-0.02,-0.09,0.01
7:20:10 PM,-0.63,-9.23,-3.24,0.01,0.02,0.01
7:20:10 PM,-0.54,-9.25,-3.20,0.01,0.01,0.01
7:20:10 PM,-0.51,-9.26,-3.26,-0.01,-0.02,0.01
7:20:10 PM,-0.51,-9.29,-3.13,0.00,-0.01,0.01
7:20:10 PM,-0.54,-9.27,-3.27,-0.01,-0.04,0.01
7:20:10 PM,-0.52,-9.23,-3.39,-0.00,-0.03,0.01
7:20:10 PM,-0.52,-9.23,-3.19,0.02,0.03,0.01
7:20:10 PM,-0.23,-9.33,-3.17,0.02,-0.01,0.01
7:20:11 PM,-0.42,-9.24,-3.05,-0.01,-0.05,0.01
7:20:11 PM,-0.49,-9.27,-3.17,-0.03,-0.06,0.01
7:20:11 PM,-0.38,-9.33,-3.48,0.01,0.00,0.01
7:20:11 PM,-0.34,-9.28,-3.30,0.04,0.03,0.01
7:20:11 PM,-0.57,-9.24,-3.26,0.00,-0.02,0.01
7:20:11 PM,-0.46,-9.30,-3.27,0.01,0.01,0.01
7:20:11 PM,-0.45,-9.23,-3.23,-0.01,-0.06,0.01
7:20:11 PM,-0.35,-9.33,-3.29,-0.01,-0.01,0.01
7:20:11 PM,-0.40,-9.27,-3.23,-0.01,0.01,0.01
7:20:12 PM,-0.33,-9.24,-3.37,0.01,-0.02,0.01
7:20:12 PM,-0.34,-9.31,-3.40,0.02,0.03,0.01
7:20:12 PM,-0.31,-9.23,-3.14,0.01,-0.03,0.01
7:20:12 PM,-0.43,-9.22,-3.20,-0.04,-0.09,0.01
7:20:12 PM,-0.37,-9.19,-3.35,-0.02,0.01,0.01
7:20:12 PM,-0.29,-9.23,-3.26,-0.00,-0.02,0.01
7:20:12 PM,-0.33,-9.27,-3.30,0.02,0.01,0.01
7:20:12 PM,-0.39,-9.22,-3.21,0.05,0.05,0.01
7:20:12 PM,-0.42,-9.26,-3.10,-0.03,-0.02,0.01
7:20:12 PM,-0.44,-9.20,-3.28,0.02,-0.02,0.01
7:20:13 PM,-0.42,-9.25,-3.24,-0.01,-0.09,0.01
7:20:13 PM,-0.34,-9.36,-3.28,-0.00,-0.06,0.01
7:20:13 PM,-0.37,-9.22,-3.39,0.01,-0.03,0.01
7:20:13 PM,-0.40,-9.23,-3.41,-0.02,-0.06,0.01
7:20:13 PM,-0.54,-9.20,-3.45,-0.01,-0.02,0.01
7:20:13 PM,-0.39,-9.24,-3.39,0.02,0.02,0.01
7:20:13 PM,-0.32,-9.24,-3.39,-0.00,-0.02,0.01
7:20:13 PM,-0.43,-9.23,-3.36,-0.01,-0.05,0.01
7:20:13 PM,-0.49,-9.16,-3.45,0.04,0.02,0.01
7:20:14 PM,-0.37,-9.23,-3.40,0.01,0.00,0.01
7:20:14 PM,-0.43,-9.25,-3.30,0.07,0.06,0.01
7:20:14 PM,-0.36,-9.26,-3.22,0.03,0.01,0.01
7:20:14 PM,-0.43,-9.23,-3.30,-0.01,-0.07,0.01
7:20:14 PM,-0.45,-9.25,-3.34,-0.01,-0.02,0.01
7:20:14 PM,-0.36,-9.15,-3.33,-0.00,-0.05,0.01
7:20:14 PM,-0.34,-9.28,-3.43,0.01,0.03,0.01
7:20:14 PM,-0.41,-9.24,-3.28,0.01,-0.04,0.01
7:20:14 PM,-0.46,-9.22,-3.28,0.00,-0.04,0.01
7:20:14 PM,-0.46,-9.21,-3.34,0.01,-0.06,0.01
7:20:15 PM,-0.32,-9.25,-3.28,-0.00,-0.06,0.01
7:20:15 PM,-0.43,-9.22,-3.39,0.01,-0.01,0.01
7:20:15 PM,-0.30,-9.25,-3.35,-0.02,-0.07,0.01
7:20:15 PM,-0.40,-9.24,-3.43,-0.01,-0.04,0.01
7:20:15 PM,-0.34,-9.26,-3.31,0.03,0.04,0.01
7:20:15 PM,-0.41,-9.23,-3.30,0.01,0.02,0.01
7:20:15 PM,-0.49,-9.28,-3.33,0.01,0.01,0.01
7:20:15 PM,-0.42,-9.22,-3.30,0.02,-0.00,0.01
7:20:15 PM,-0.34,-9.23,-3.52,0.00,-0.03,0.01
7:20:16 PM,-0.44,-9.31,-3.39,0.02,-0.01,0.01
7:20:16 PM,-0.40,-9.28,-3.41,0.01,-0.01,0.01
7:20:16 PM,-0.41,-9.29,-3.36,0.00,-0.03,0.01
7:20:16 PM,-0.39,-9.23,-3.33,-0.00,-0.04,0.01
7:20:16 PM,-0.39,-9.15,-3.28,0.02,-0.01,0.01
7:20:16 PM,-0.37,-9.29,-3.34,0.02,0.05,0.01
7:20:16 PM,-0.34,-9.35,-3.29,0.01,0.01,0.01
7:20:16 PM,-0.40,-9.22,-3.37,0.02,-0.02,0.01
7:20:16 PM,-0.51,-9.20,-3.41,-0.01,-0.03,0.01
7:20:16 PM,-0.62,-9.29,-3.16,-0.01,-0.03,0.01
7:20:17 PM,-0.29,-9.22,-3.35,0.01,-0.03,0.01
7:20:17 PM,-0.43,-9.21,-3.46,0.02,0.03,0.01
7:20:17 PM,-0.32,-9.30,-3.24,0.03,0.01,0.01
7:20:17 PM,-0.34,-9.22,-3.29,-0.01,-0.05,0.01
7:20:17 PM,-0.29,-9.30,-3.34,-0.03,-0.07,0.01
7:20:17 PM,-0.04,-9.12,-3.55,0.07,-0.06,0.01
7:20:17 PM,-0.37,-9.21,-3.46,0.04,-0.00,0.01
7:20:17 PM,-0.45,-9.35,-3.25,-0.03,0.01,0.01
7:20:17 PM,-0.34,-9.22,-3.33,-0.00,-0.06,0.01
7:20:18 PM,-0.45,-9.14,-3.36,-0.00,-0.07,0.01
7:20:18 PM,-0.28,-9.25,-3.55,0.00,-0.04,0.01
7:20:18 PM,-0.35,-9.28,-3.41,0.02,0.03,0.01
7:20:18 PM,-0.36,-9.29,-3.37,-0.00,-0.03,0.01
7:20:18 PM,-0.37,-9.29,-3.41,0.02,0.01,0.01
7:20:18 PM,-0.26,-9.27,-3.43,0.00,-0.04,0.01
7:20:18 PM,-0.18,-9.32,-3.34,0.01,-0.01,0.01
7:20:18 PM,-0.43,-9.22,-3.36,0.01,0.01,0.01
7:20:18 PM,-0.33,-9.27,-3.44,-0.01,-0.03,0.01
7:20:18 PM,-0.42,-9.20,-3.39,0.01,-0.03,0.01
7:20:19 PM,-0.30,-9.25,-3.33,-0.01,-0.06,0.01
7:20:19 PM,-0.40,-9.17,-3.50,0.00,-0.02,0.01
7:20:19 PM,-0.28,-9.32,-3.54,-0.02,-0.02,0.01
7:20:19 PM,-0.26,-9.28,-3.44,0.01,-0.00,0.01
7:20:19 PM,-0.47,-9.22,-3.49,-0.00,-0.03,0.01
7:20:19 PM,-0.62,-9.08,-3.61,0.05,0.10,0.01
7:20:19 PM,-0.37,-9.20,-3.38,0.02,-0.00,0.01
7:20:19 PM,-0.16,-9.20,-3.40,0.03,0.03,0.01
7:20:19 PM,-0.45,-9.27,-3.46,-0.01,-0.01,0.01
7:20:20 PM,-0.43,-9.18,-3.46,0.03,-0.02,0.01
7:20:20 PM,-0.41,-9.24,-3.38,0.00,-0.04,0.01
7:20:20 PM,-0.41,-9.18,-3.53,0.01,-0.04,0.01
7:20:20 PM,-0.29,-9.28,-3.42,0.03,-0.02,0.01
7:20:20 PM,-0.42,-9.19,-3.50,0.01,-0.03,0.01
7:20:20 PM,-0.44,-9.16,-3.51,0.01,-0.02,0.01
7:20:20 PM,-0.41,-9.17,-3.37,-0.01,-0.05,0.01
7:20:20 PM,-0.39,-9.24,-3.48,-0.02,-0.08,0.01
7:20:20 PM,-0.45,-9.13,-3.56,0.04,0.04,0.01
7:20:20 PM,-0.45,-9.23,-3.38,-0.00,-0.03,0.01
7:20:21 PM,-0.36,-9.23,-3.52,0.02,-0.01,0.01
7:20:21 PM,-0.39,-9.25,-3.56,0.04,0.01,0.01
7:20:21 PM,-0.27,-9.24,-3.47,0.00,0.01,0.01
7:20:21 PM,-0.56,-9.22,-3.56,0.01,-0.00,0.01
7:20:21 PM,-0.39,-9.20,-3.59,0.06,0.07,0.01
7:20:21 PM,-0.47,-9.17,-3.35,0.02,-0.02,0.01
7:20:21 PM,-0.52,-9.13,-3.51,-0.00,-0.04,0.01
7:20:21 PM,-0.40,-9.25,-3.43,0.01,-0.01,0.01
7:20:21 PM,-0.46,-9.25,-3.43,-0.02,-0.03,0.01
7:20:22 PM,-0.46,-9.25,-3.46,0.02,-0.02,0.01
7:20:22 PM,-0.51,-9.21,-3.54,0.01,0.01,0.01
7:20:22 PM,-0.35,-9.27,-3.39,0.03,0.02,0.01
7:20:22 PM,-0.43,-9.18,-3.46,-0.00,-0.02,0.01
7:20:22 PM,-0.36,-9.22,-3.53,0.02,0.00,0.01
7:20:22 PM,-0.48,-9.18,-3.47,-0.01,-0.04,0.01
7:20:22 PM,-0.46,-9.21,-3.50,-0.00,-0.05,0.01
7:20:22 PM,-0.40,-9.19,-3.52,0.02,0.01,0.01
7:20:22 PM,-0.41,-9.15,-3.51,0.00,-0.03,0.01
7:20:23 PM,-0.57,-9.23,-3.35,0.02,-0.02,0.01
7:20:23 PM,-0.44,-9.17,-3.45,0.00,-0.06,0.01
7:20:23 PM,-0.46,-9.17,-3.57,-0.01,-0.02,0.01
7:20:23 PM,-0.53,-9.21,-3.51,-0.01,-0.06,0.01
7:20:23 PM,-0.45,-9.17,-3.62,0.01,-0.03,0.01
7:20:23 PM,-0.31,-9.23,-3.42,0.01,0.04,0.01
7:20:23 PM,-0.65,-9.09,-3.62,0.02,0.08,0.01
7:20:23 PM,-0.39,-9.20,-3.37,-0.01,-0.04,0.01
7:20:23 PM,-0.41,-9.22,-3.53,-0.02,-0.06,0.01
7:20:23 PM,-0.56,-9.21,-3.50,0.04,0.03,0.01
7:20:24 PM,-0.37,-9.17,-3.63,0.01,0.02,0.01
7:20:24 PM,-0.59,-9.27,-3.57,-0.01,-0.01,0.01
7:20:24 PM,-0.48,-9.15,-3.62,0.04,-0.03,0.01
7:20:24 PM,-0.49,-9.13,-3.71,0.01,-0.03,0.01
7:20:24 PM,-0.48,-9.27,-3.50,0.01,-0.05,0.01
7:20:24 PM,-0.59,-9.13,-3.54,0.01,-0.03,0.01
7:20:24 PM,-0.51,-9.17,-3.40,-0.01,-0.04,0.01
7:20:24 PM,-0.60,-9.20,-3.40,0.04,0.03,0.01
7:20:24 PM,-0.53,-9.18,-3.49,-0.00,-0.02,0.01
7:20:25 PM,-0.56,-9.22,-3.56,0.00,-0.04,0.01
7:20:25 PM,-0.50,-9.21,-3.40,-0.01,-0.04,0.01
7:20:25 PM,-0.60,-9.20,-3.51,-0.02,-0.05,0.01
7:20:25 PM,-0.50,-9.14,-3.76,0.02,0.00,0.01
7:20:25 PM,-0.55,-9.15,-3.74,-0.01,-0.04,0.01
7:20:25 PM,-0.50,-9.21,-3.57,0.02,-0.01,0.01
7:20:25 PM,-0.60,-9.10,-3.54,0.02,-0.02,0.01
7:20:25 PM,-0.56,-9.15,-3.49,0.01,-0.04,0.01
7:20:25 PM,-0.52,-9.22,-3.41,-0.01,-0.06,0.01
7:20:25 PM,-0.52,-9.18,-3.41,-0.00,-0.05,0.01
7:20:26 PM,-0.54,-9.18,-3.65,-0.01,-0.05,0.01
7:20:26 PM,-0.55,-9.21,-3.71,0.01,0.01,0.01
7:20:26 PM,-0.66,-9.10,-3.66,0.02,-0.04,0.01
7:20:26 PM,-0.59,-9.10,-3.73,0.00,-0.00,0.01
7:20:26 PM,-0.58,-9.21,-3.58,0.01,-0.03,0.01
7:20:26 PM,-0.53,-9.17,-3.58,-0.00,0.01,0.01
7:20:26 PM,-0.58,-9.23,-3.70,-0.01,0.01,0.01
7:20:26 PM,-0.54,-9.18,-3.62,0.01,-0.01,0.01
7:20:26 PM,-0.58,-9.25,-3.71,-0.03,-0.06,0.01
7:20:27 PM,-0.57,-9.15,-3.75,0.00,0.01,0.01
7:20:27 PM,-0.50,-9.18,-3.63,0.02,-0.01,0.01
7:20:27 PM,-0.52,-9.14,-3.63,0.01,0.02,0.01
7:20:27 PM,-0.60,-9.18,-3.53,0.00,-0.03,0.01
7:20:27 PM,-0.74,-9.19,-3.61,0.02,-0.03,0.01
7:20:27 PM,-0.65,-9.14,-3.54,0.03,-0.01,0.01
7:20:27 PM,-0.61,-9.12,-3.56,0.01,-0.05,0.01
7:20:27 PM,-0.55,-9.10,-3.58,0.01,0.05,0.01
7:20:27 PM,-0.51,-9.18,-3.70,0.03,0.07,0.01
7:20:27 PM,-0.43,-9.16,-3.57,0.01,-0.00,0.01
7:20:28 PM,-0.37,-9.13,-3.58,0.01,-0.01,0.01
7:20:28 PM,-0.34,-9.11,-3.55,-0.00,-0.01,0.01
7:20:28 PM,-0.42,-9.20,-3.46,0.03,0.02,0.01
7:20:28 PM,-0.38,-9.12,-3.42,0.01,-0.01,0.01
7:20:28 PM,-0.37,-9.15,-3.50,0.02,-0.05,0.01
7:20:28 PM,-0.55,-9.12,-3.73,-0.09,-0.13,0.01
7:20:28 PM,-0.71,-9.10,-3.79,-0.06,-0.09,0.01
7:20:28 PM,-0.45,-9.21,-3.81,0.01,0.07,0.01
7:20:28 PM,-0.50,-9.12,-3.68,0.05,0.09,0.01
7:20:29 PM,-0.40,-9.24,-3.58,0.01,-0.03,0.01
7:20:29 PM,-0.39,-9.16,-3.53,0.01,-0.03,0.01
7:20:29 PM,-0.50,-9.20,-3.65,0.01,-0.05,0.01
7:20:29 PM,-0.43,-9.14,-3.69,0.04,-0.03,0.01
7:20:29 PM,-0.41,-9.14,-3.60,0.01,-0.05,0.01
7:20:29 PM,-0.48,-9.25,-3.46,-0.02,-0.05,0.01
7:20:29 PM,-0.52,-9.10,-3.69,0.02,-0.01,0.01
7:20:29 PM,-0.43,-9.20,-3.73,0.03,0.00,0.01
7:20:29 PM,-0.54,-9.15,-3.67,0.01,-0.05,0.01
7:20:29 PM,-0.45,-9.08,-3.67,0.04,-0.01,0.01
7:20:30 PM,-0.39,-9.22,-3.50,-0.06,-0.09,0.01
7:20:30 PM,-0.57,-9.09,-3.75,-0.04,-0.07,0.01
7:20:30 PM,-0.56,-9.09,-3.76,0.04,0.03,0.01
7:20:30 PM,-0.58,-9.11,-3.56,0.07,-0.02,0.01
7:20:30 PM,-0.51,-9.18,-3.62,0.01,0.01,0.01
7:20:30 PM,-0.47,-9.20,-3.43,0.01,-0.05,0.01
7:20:30 PM,-0.51,-9.10,-3.77,-0.03,-0.03,0.01
7:20:30 PM,-0.65,-9.04,-3.96,0.01,0.00,0.01
7:20:30 PM,-0.47,-9.16,-3.85,0.09,0.05,0.01
7:20:31 PM,-0.52,-9.20,-3.59,0.01,0.01,0.01
7:20:31 PM,-0.53,-9.14,-3.69,0.01,-0.03,0.01
7:20:31 PM,-0.53,-9.11,-3.67,0.01,-0.04,0.01
7:20:31 PM,-0.53,-9.13,-3.73,0.02,-0.04,0.01
7:20:31 PM,-0.46,-9.18,-3.82,-0.01,-0.02,0.01
7:20:31 PM,-0.57,-9.04,-3.84,-0.01,0.03,0.01
7:20:31 PM,-0.47,-9.17,-3.62,0.05,0.05,0.01
7:20:31 PM,-0.38,-9.18,-3.59,0.03,0.01,0.01
7:20:31 PM,-0.45,-9.15,-3.70,-0.01,-0.03,0.01
7:20:31 PM,-0.37,-9.08,-3.58,0.02,0.01,0.01
7:20:32 PM,-0.48,-9.13,-3.65,0.02,-0.02,0.01
7:20:32 PM,-0.37,-9.15,-3.73,0.00,0.01,0.01
7:20:32 PM,-0.42,-9.23,-3.79,0.01,-0.01,0.01
7:20:32 PM,-0.38,-9.14,-3.76,0.01,0.03,0.01
7:20:32 PM,-0.29,-9.16,-3.59,0.03,-0.01,0.01
7:20:32 PM,-0.28,-9.10,-3.69,-0.04,-0.06,0.01
7:20:32 PM,-0.45,-9.15,-3.64,0.03,0.01,0.01
7:20:32 PM,-0.27,-9.20,-3.68,0.06,0.04,0.01
7:20:32 PM,-0.14,-9.19,-3.69,0.07,0.02,0.01
7:20:33 PM,-0.23,-9.14,-3.49,0.05,-0.02,0.01
7:20:33 PM,-0.29,-9.15,-3.47,0.01,-0.04,0.01
7:20:33 PM,-0.31,-9.18,-3.40,-0.01,-0.06,0.01
7:20:33 PM,-0.40,-9.13,-3.53,-0.01,-0.06,0.01
7:20:33 PM,-0.23,-9.19,-3.76,0.02,-0.01,0.01
7:20:33 PM,-0.23,-9.21,-3.61,-0.01,-0.01,0.01
7:20:33 PM,-0.36,-9.16,-3.63,0.01,-0.01,0.01
7:20:33 PM,-0.18,-9.15,-3.58,-0.00,-0.02,0.01
7:20:33 PM,-0.28,-9.23,-3.39,-0.02,-0.09,0.01
7:20:34 PM,-0.32,-9.21,-3.64,0.06,-0.04,0.01
7:20:34 PM,-0.15,-9.22,-3.64,0.01,-0.04,0.01
7:20:34 PM,-0.31,-9.20,-3.52,-0.03,-0.07,0.01
7:20:34 PM,-0.44,-9.26,-3.54,-0.01,-0.06,0.01
7:20:34 PM,-0.32,-9.19,-3.53,0.03,-0.00,0.01
7:20:34 PM,-0.35,-9.22,-3.59,0.00,-0.03,0.01
7:20:34 PM,-0.24,-9.18,-3.55,0.01,-0.03,0.01
7:20:34 PM,-0.41,-9.15,-3.46,-0.01,-0.06,0.01
7:20:34 PM,-0.32,-9.20,-3.50,0.01,0.01,0.01
7:20:34 PM,-0.18,-9.22,-3.50,0.03,0.05,0.01
7:20:35 PM,-0.20,-9.17,-3.61,0.01,0.00,0.01
7:20:35 PM,-0.32,-9.20,-3.45,-0.02,-0.05,0.01
7:20:35 PM,-0.28,-9.22,-3.46,0.02,-0.00,0.01
7:20:35 PM,-0.38,-9.13,-3.54,-0.01,-0.03,0.01
7:20:35 PM,-0.43,-9.11,-3.56,0.01,-0.01,0.01
7:20:35 PM,-0.45,-9.26,-3.59,0.05,-0.01,0.01
7:20:35 PM,-0.34,-9.26,-3.61,0.02,-0.01,0.01
7:20:35 PM,-0.36,-9.22,-3.41,0.02,0.02,0.01
7:20:35 PM,-0.38,-9.13,-3.43,-0.01,-0.07,0.01
7:20:36 PM,-0.29,-9.15,-3.73,-0.01,-0.03,0.01
7:20:36 PM,-0.37,-9.31,-3.45,-0.02,-0.05,0.01
7:20:36 PM,-0.46,-9.17,-3.43,-0.01,-0.07,0.01
7:20:36 PM,-0.42,-9.18,-3.76,-0.02,-0.06,0.01
7:20:36 PM,-0.48,-9.21,-3.71,0.02,0.05,0.01
7:20:36 PM,-0.50,-9.19,-3.63,-0.02,-0.05,0.01
7:20:36 PM,-0.49,-9.14,-3.67,0.01,-0.03,0.01
7:20:36 PM,-0.40,-9.15,-3.71,0.01,-0.05,0.01
7:20:36 PM,-0.44,-9.21,-3.71,-0.03,-0.09,0.01
7:20:36 PM,-0.59,-9.16,-3.74,0.04,0.01,0.01
7:20:37 PM,-0.21,-9.19,-3.76,0.02,0.03,0.01
7:20:37 PM,-0.39,-9.19,-3.47,-0.01,0.01,0.01
7:20:37 PM,-0.34,-9.11,-3.88,-0.02,0.01,0.01
7:20:37 PM,-0.44,-9.14,-3.59,0.03,0.00,0.01
7:20:37 PM,-0.51,-9.17,-3.63,0.02,-0.02,0.01
7:20:37 PM,-0.54,-9.12,-3.73,-0.02,-0.03,0.01
7:20:37 PM,-0.51,-9.16,-3.79,0.02,-0.01,0.01
7:20:37 PM,-0.43,-9.06,-3.77,0.02,-0.01,0.01
7:20:37 PM,-0.17,-9.19,-3.69,0.03,0.00,0.01
7:20:38 PM,-0.22,-9.23,-3.68,0.01,-0.02,0.01
7:20:38 PM,-0.37,-9.21,-3.62,-0.04,-0.05,0.01
7:20:38 PM,-0.42,-9.18,-3.98,0.01,0.05,0.01
7:20:38 PM,-0.36,-9.15,-3.74,0.00,-0.05,0.01
7:20:38 PM,-0.35,-9.13,-3.69,0.03,-0.02,0.01
7:20:38 PM,-0.30,-9.13,-3.76,-0.03,-0.05,0.01
7:20:38 PM,-0.40,-9.14,-3.88,-0.05,-0.05,0.01
7:20:38 PM,-0.24,-9.06,-3.91,0.01,-0.01,0.01
7:20:38 PM,-0.29,-9.17,-3.71,0.02,-0.03,0.01
7:20:38 PM,-0.32,-9.17,-3.73,0.03,-0.03,0.01
7:20:39 PM,-0.29,-9.07,-3.87,-0.01,-0.07,0.01
7:20:39 PM,-0.39,-9.11,-3.78,0.03,-0.05,0.01
7:20:39 PM,-0.45,-9.14,-3.74,-0.04,-0.02,0.01
7:20:39 PM,-0.48,-9.25,-3.64,-0.01,0.00,0.01
7:20:39 PM,-0.27,-9.13,-3.88,0.07,0.04,0.01
7:20:39 PM,-0.56,-9.03,-3.95,-0.05,-0.05,0.01
7:20:39 PM,-0.46,-9.05,-4.01,-0.09,-0.09,0.01
7:20:39 PM,-0.48,-9.09,-3.90,0.02,-0.06,0.01
7:20:39 PM,-0.40,-9.15,-3.83,-0.00,-0.03,0.01
7:20:40 PM,-0.22,-9.09,-3.89,0.05,0.01,0.01
7:20:40 PM,-0.22,-9.11,-3.86,-0.01,-0.02,0.01
7:20:40 PM,-0.34,-8.94,-4.25,-0.00,-0.03,0.01
7:20:40 PM,-0.54,-9.26,-3.63,-0.05,-0.07,0.01
7:20:40 PM,-0.36,-9.13,-3.86,-0.04,-0.02,0.01
7:20:40 PM,-0.33,-9.17,-3.95,0.03,0.00,0.01
7:20:40 PM,-0.55,-9.08,-3.93,0.07,-0.05,0.01
7:20:40 PM,-0.45,-9.00,-3.99,-0.02,-0.02,0.01
7:20:40 PM,-0.25,-8.93,-3.80,-0.17,0.21,0.01
7:20:40 PM,-0.46,-9.00,-4.15,0.02,0.05,0.01
7:20:41 PM,-0.20,-8.98,-4.32,0.13,0.02,0.01
7:20:41 PM,-0.23,-9.08,-3.69,0.02,-0.08,0.01
7:20:41 PM,-0.43,-9.09,-4.09,-0.03,0.01,0.01
7:20:41 PM,-0.57,-8.97,-4.27,0.06,-0.06,0.01
7:20:41 PM,-0.15,-9.22,-3.92,0.07,0.05,0.01
7:20:41 PM,-0.33,-9.08,-3.87,-0.04,-0.07,0.01
7:20:41 PM,-0.35,-9.06,-3.98,-0.02,-0.02,0.01
7:20:41 PM,-0.41,-9.05,-3.83,-0.01,-0.12,0.01
7:20:41 PM,-0.48,-9.01,-4.13,0.01,-0.01,0.01
7:20:42 PM,-0.34,-9.09,-4.06,-0.04,-0.07,0.01
7:20:42 PM,-0.68,-9.04,-4.30,-0.02,0.02,0.01
7:20:42 PM,-0.36,-8.98,-4.29,0.03,0.03,0.01
7:20:42 PM,-0.38,-8.97,-4.15,0.02,-0.04,0.01
7:20:42 PM,-0.62,-9.00,-4.19,0.05,0.00,0.01
7:20:42 PM,-0.39,-9.04,-4.08,0.02,-0.01,0.01
7:20:42 PM,-0.31,-9.05,-4.18,0.04,-0.00,0.01
7:20:42 PM,-0.41,-9.00,-4.19,0.03,-0.07,0.01
7:20:42 PM,-0.26,-9.08,-4.11,0.03,0.05,0.01
7:20:42 PM,-0.20,-9.06,-4.02,0.03,0.00,0.01
7:20:43 PM,-0.15,-9.05,-3.99,0.02,0.01,0.01
7:20:43 PM,-0.41,-9.12,-4.07,-0.03,-0.07,0.01
7:20:43 PM,-0.37,-8.98,-4.17,0.03,-0.07,0.01
7:20:43 PM,-0.25,-8.97,-4.14,-0.02,-0.09,0.01
7:20:43 PM,-0.28,-9.22,-4.04,-0.03,0.01,0.01
7:20:43 PM,-0.26,-8.93,-4.25,0.00,-0.05,0.01
7:20:43 PM,-0.18,-8.91,-4.09,0.03,0.03,0.01
7:20:43 PM,-0.24,-9.05,-4.14,0.02,-0.01,0.01
7:20:43 PM,-0.35,-9.10,-4.21,0.06,0.02,0.01
7:20:44 PM,-0.27,-9.06,-4.02,0.02,-0.01,0.01
7:20:44 PM,-0.26,-9.08,-4.01,-0.01,-0.04,0.01
7:20:44 PM,-0.36,-8.97,-4.14,0.03,0.00,0.01
7:20:44 PM,-0.40,-9.11,-4.00,0.07,0.07,0.01
7:20:44 PM,-0.31,-8.96,-4.18,-0.01,0.00,0.01
7:20:44 PM,-0.26,-9.06,-4.19,0.02,-0.02,0.01
7:20:44 PM,-0.21,-9.10,-4.13,0.04,0.02,0.01
7:20:44 PM,-0.25,-8.97,-4.20,0.02,0.03,0.01
7:20:44 PM,-0.13,-9.09,-4.02,0.02,0.05,0.01
7:20:45 PM,-0.11,-8.95,-4.15,0.01,-0.02,0.01
7:20:45 PM,-0.15,-8.99,-4.11,-0.02,-0.08,0.01
7:20:45 PM,-0.27,-8.98,-3.89,0.00,-0.04,0.01
7:20:45 PM,-0.22,-9.03,-4.00,0.03,0.01,0.01
7:20:45 PM,-0.08,-9.23,-3.87,0.00,-0.03,0.01
7:20:45 PM,-0.21,-9.07,-4.02,0.00,-0.02,0.01
7:20:45 PM,-0.22,-9.04,-4.02,0.01,0.01,0.01
7:20:45 PM,-0.20,-9.06,-4.16,-0.02,-0.06,0.01
7:20:45 PM,-0.31,-9.07,-4.07,-0.01,-0.04,0.01
7:20:45 PM,-0.06,-9.04,-4.20,-0.05,-0.08,0.01
7:20:46 PM,-0.32,-9.03,-4.03,-0.05,-0.10,0.01
7:20:46 PM,-0.29,-9.09,-4.11,0.05,0.05,0.01
7:20:46 PM,-0.20,-9.03,-4.10,0.05,0.03,0.01
7:20:46 PM,-0.20,-9.06,-3.94,-0.00,-0.00,0.01
7:20:46 PM,-0.29,-9.04,-4.00,-0.01,-0.05,0.01
7:20:46 PM,-0.19,-9.02,-4.01,0.02,0.00,0.01
7:20:46 PM,-0.10,-9.07,-4.07,0.02,0.07,0.01
7:20:46 PM,-0.19,-9.05,-3.94,-0.02,-0.05,0.01
7:20:46 PM,-0.24,-9.02,-3.92,0.02,-0.03,0.01
7:20:47 PM,-0.06,-9.03,-3.98,0.03,-0.00,0.01
7:20:47 PM,-0.15,-9.21,-3.82,0.03,-0.01,0.01
7:20:47 PM,-0.17,-9.03,-3.93,0.06,0.07,0.01
7:20:47 PM,-0.13,-9.03,-3.94,-0.02,-0.04,0.01
7:20:47 PM,-0.06,-9.16,-4.06,0.01,0.06,0.01
7:20:47 PM,-0.07,-9.06,-4.01,0.01,-0.03,0.01
7:20:47 PM,-0.05,-8.98,-4.05,0.01,-0.03,0.01
7:20:47 PM,-0.14,-9.04,-3.99,-0.00,-0.02,0.01
7:20:47 PM,-0.13,-9.04,-3.98,-0.02,-0.07,0.01
7:20:47 PM,-0.13,-9.02,-4.18,-0.06,-0.11,0.01
7:20:48 PM,-0.17,-9.02,-4.19,0.06,0.06,0.01
7:20:48 PM,-0.03,-9.13,-3.90,-0.02,-0.07,0.01
7:20:48 PM,-0.09,-9.09,-4.02,0.03,0.02,0.01
7:20:48 PM,-0.06,-8.88,-4.12,0.06,0.03,0.01
7:20:48 PM,0.01,-9.01,-4.16,-0.01,-0.08,0.01
7:20:48 PM,-0.21,-9.00,-4.07,0.01,-0.06,0.01
7:20:48 PM,-0.09,-9.12,-3.97,0.01,0.01,0.01
7:20:48 PM,-0.02,-9.07,-3.94,-0.02,-0.07,0.01
7:20:48 PM,-0.12,-8.94,-4.08,-0.01,-0.05,0.01
7:20:49 PM,-0.27,-8.92,-4.21,0.01,-0.01,0.01
7:20:49 PM,-0.17,-9.04,-4.11,0.06,0.05,0.01
7:20:49 PM,-0.18,-9.11,-3.89,-0.02,-0.05,0.01
7:20:49 PM,-0.02,-9.12,-4.05,0.05,0.02,0.01
7:20:49 PM,0.02,-9.00,-4.05,0.03,0.02,0.01
7:20:49 PM,-0.04,-8.94,-4.14,-0.02,-0.09,0.01
7:20:49 PM,-0.06,-8.92,-4.14,0.05,0.04,0.01
7:20:49 PM,0.03,-9.00,-4.12,0.07,0.10,0.01
7:20:49 PM,-0.25,-9.03,-4.07,0.01,0.07,0.01
7:20:49 PM,-0.04,-9.11,-4.00,0.02,-0.02,0.01
7:20:50 PM,-0.05,-9.03,-4.21,-0.01,-0.03,0.01
7:20:50 PM,-0.01,-9.06,-4.10,0.02,0.03,0.01
7:20:50 PM,-0.26,-9.07,-3.93,0.01,0.01,0.01
7:20:50 PM,-0.10,-8.96,-4.09,0.01,0.04,0.01
7:20:50 PM,-0.17,-9.01,-4.10,0.03,0.02,0.01
7:20:50 PM,-0.15,-8.98,-4.00,-0.00,-0.04,0.01
7:20:50 PM,-0.15,-8.99,-4.12,0.01,-0.02,0.01
7:20:50 PM,-0.05,-9.01,-4.11,0.04,0.09,0.01
7:20:50 PM,-0.04,-9.05,-3.91,0.01,-0.01,0.01
7:20:51 PM,-0.21,-9.04,-3.97,0.01,-0.08,0.01
7:20:51 PM,0.10,-9.11,-3.91,-0.04,-0.09,0.01
7:20:51 PM,-0.15,-9.02,-3.96,-0.00,-0.04,0.01
7:20:51 PM,-0.01,-9.08,-4.01,0.01,-0.02,0.01
7:20:51 PM,-0.10,-9.00,-4.10,-0.01,-0.03,0.01
7:20:51 PM,-0.09,-9.02,-4.19,-0.02,-0.08,0.01
7:20:51 PM,-0.24,-9.01,-4.09,0.05,0.00,0.01
7:20:51 PM,-0.08,-8.96,-4.11,0.03,-0.01,0.01
7:20:51 PM,-0.17,-8.99,-4.05,0.01,-0.05,0.01
7:20:51 PM,-0.05,-9.07,-4.09,0.04,-0.03,0.01
7:20:52 PM,-0.11,-9.03,-4.07,-0.01,-0.03,0.01
7:20:52 PM,-0.17,-9.05,-3.95,0.01,-0.00,0.01
7:20:52 PM,-0.19,-8.93,-4.10,-0.02,-0.06,0.01
7:20:52 PM,-0.06,-9.00,-4.12,0.01,-0.02,0.01
7:20:52 PM,-0.28,-8.96,-4.11,0.00,-0.02,0.01
7:20:52 PM,-0.30,-9.00,-4.04,0.00,-0.06,0.01
7:20:52 PM,-0.25,-8.96,-4.16,0.03,0.02,0.01
7:20:52 PM,-0.04,-8.96,-4.13,-0.00,-0.02,0.01
7:20:52 PM,-0.07,-9.06,-4.10,-0.00,-0.02,0.01
7:20:53 PM,-0.02,-9.06,-4.03,0.00,-0.02,0.01
7:20:53 PM,-0.02,-8.97,-4.19,0.02,-0.02,0.01
7:20:53 PM,-0.21,-8.96,-4.10,0.03,0.05,0.01
7:20:53 PM,-0.03,-9.05,-4.16,0.02,-0.04,0.01
7:20:53 PM,-0.21,-8.97,-4.10,-0.01,-0.05,0.01
7:20:53 PM,0.04,-9.13,-4.02,-0.01,-0.00,0.01
7:20:53 PM,0.00,-9.07,-4.03,0.00,0.00,0.01
7:20:53 PM,0.04,-9.07,-4.14,0.01,0.01,0.01
7:20:53 PM,-0.05,-8.99,-4.06,0.02,-0.03,0.01
7:20:53 PM,-0.04,-9.03,-4.08,0.02,-0.04,0.01
7:20:54 PM,0.02,-9.09,-4.07,-0.01,-0.05,0.01
7:20:54 PM,-0.04,-9.05,-3.94,-0.01,-0.12,0.01
7:20:54 PM,-0.06,-8.90,-4.07,-0.02,0.02,0.01
7:20:54 PM,0.01,-8.88,-4.12,0.10,0.05,0.01
7:20:54 PM,0.01,-9.03,-3.98,0.00,-0.02,0.01
7:20:54 PM,-0.02,-9.06,-4.01,0.05,0.09,0.01
7:20:54 PM,-0.09,-9.07,-3.99,0.05,0.07,0.01
7:20:54 PM,0.18,-9.60,-3.83,0.01,-0.11,0.01
7:20:54 PM,-0.22,-8.86,-4.03,-0.04,-0.07,0.01
7:20:55 PM,-0.06,-8.96,-4.00,0.03,-0.01,0.01
7:20:55 PM,-0.03,-9.05,-3.95,0.01,0.02,0.01
7:20:55 PM,-0.02,-9.05,-3.95,0.02,0.04,0.01
7:20:55 PM,0.04,-9.06,-3.94,-0.01,-0.01,0.01
7:20:55 PM,-0.14,-9.08,-3.98,0.01,-0.01,0.01
7:20:55 PM,0.08,-9.17,-3.84,-0.02,-0.05,0.01
7:20:55 PM,-0.05,-9.11,-3.89,-0.01,0.06,0.01
7:20:55 PM,0.10,-9.06,-4.13,-0.04,-0.08,0.01
7:20:55 PM,0.08,-9.08,-4.05,-0.00,0.01,0.01
7:20:55 PM,0.02,-8.95,-4.06,0.03,-0.01,0.01
7:20:56 PM,0.08,-9.14,-3.92,0.01,-0.02,0.01
7:20:56 PM,0.14,-9.06,-3.99,0.03,0.00,0.01
7:20:56 PM,0.03,-9.07,-4.00,0.04,0.10,0.01
7:20:56 PM,0.08,-9.02,-3.98,-0.03,0.03,0.01
7:20:56 PM,0.01,-9.05,-3.92,-0.02,-0.02,0.01
7:20:56 PM,0.03,-9.04,-3.97,0.02,-0.03,0.01
7:20:56 PM,0.04,-9.02,-4.07,0.03,-0.02,0.01
7:20:56 PM,0.05,-9.08,-3.92,-0.01,-0.07,0.01
7:20:56 PM,-0.09,-8.99,-4.04,0.03,0.00,0.01
7:20:57 PM,0.04,-9.11,-3.94,-0.05,-0.09,0.01
7:20:57 PM,0.03,-9.04,-4.00,0.00,-0.06,0.01
7:20:57 PM,0.10,-9.07,-4.07,-0.01,-0.04,0.01
7:20:57 PM,0.02,-8.99,-4.07,0.02,0.02,0.01
7:20:57 PM,-0.10,-8.97,-4.11,-0.02,-0.05,0.01
7:20:57 PM,-0.03,-8.90,-4.15,0.01,-0.02,0.01
7:20:57 PM,0.06,-9.05,-4.06,0.03,0.03,0.01
7:20:57 PM,-0.04,-8.99,-4.03,0.02,0.01,0.01
7:20:57 PM,0.16,-8.96,-3.92,0.05,0.05,0.01
7:20:57 PM,0.14,-9.05,-3.97,-0.00,-0.02,0.01
7:20:58 PM,0.01,-9.04,-4.00,0.01,0.03,0.01
7:20:58 PM,0.09,-9.02,-3.91,-0.02,-0.04,0.01
7:20:58 PM,0.05,-9.02,-4.00,0.03,0.01,0.01
7:20:58 PM,0.29,-9.07,-3.96,0.01,-0.05,0.01
7:20:58 PM,0.11,-9.01,-4.00,-0.02,-0.03,0.01
7:20:58 PM,0.20,-9.05,-3.92,0.01,-0.04,0.01
7:20:58 PM,0.15,-8.97,-4.18,-0.03,-0.08,0.01
7:20:58 PM,0.05,-9.07,-4.11,-0.00,-0.04,0.01
7:20:58 PM,0.01,-9.10,-3.94,0.02,0.01,0.01
7:20:59 PM,0.16,-8.99,-4.02,0.02,-0.02,0.01
7:20:59 PM,0.02,-9.04,-3.97,0.00,0.00,0.01
7:20:59 PM,0.10,-9.00,-4.09,0.01,-0.02,0.01
7:20:59 PM,0.06,-9.04,-4.00,-0.00,-0.03,0.01
7:20:59 PM,-0.01,-9.00,-3.91,0.01,-0.03,0.01
7:20:59 PM,0.00,-8.98,-3.96,-0.00,-0.03,0.01
7:20:59 PM,0.08,-8.97,-4.01,0.02,-0.03,0.01
7:20:59 PM,0.14,-9.07,-4.03,0.02,-0.00,0.01
7:20:59 PM,0.16,-9.01,-4.02,0.01,0.00,0.01
7:21:00 PM,0.06,-9.06,-3.94,0.03,0.01,0.01
7:21:00 PM,0.23,-9.02,-3.91,-0.01,-0.05,0.01
7:21:00 PM,0.10,-9.09,-3.97,0.01,-0.02,0.01
7:21:00 PM,0.14,-9.05,-3.98,0.04,0.04,0.01
7:21:00 PM,0.27,-9.05,-3.91,0.01,-0.08,0.01
7:21:00 PM,0.12,-9.14,-3.90,-0.00,-0.00,0.01
7:21:00 PM,0.02,-9.02,-3.92,0.02,-0.01,0.01
7:21:00 PM,0.14,-9.12,-3.98,-0.01,-0.03,0.01
7:21:00 PM,0.05,-9.08,-4.08,0.01,-0.00,0.01
7:21:00 PM,0.10,-9.13,-3.94,0.02,0.01,0.01
7:21:01 PM,0.01,-9.05,-3.94,0.05,0.04,0.01
7:21:01 PM,0.10,-9.01,-3.98,0.02,-0.04,0.01
7:21:01 PM,0.07,-9.05,-3.92,-0.02,-0.07,0.01
7:21:01 PM,-0.09,-9.01,-3.97,0.03,0.02,0.01
7:21:01 PM,0.10,-9.07,-3.99,0.02,0.00,0.01
7:21:01 PM,0.12,-9.05,-4.07,0.03,0.02,0.01
7:21:01 PM,0.22,-9.11,-3.82,-0.02,-0.06,0.01
7:21:01 PM,0.05,-9.08,-3.98,0.00,0.02,0.01
7:21:01 PM,-0.05,-9.06,-3.95,0.04,0.01,0.01
7:21:02 PM,0.18,-9.00,-4.02,0.03,-0.01,0.01
7:21:02 PM,0.02,-9.10,-3.82,-0.01,-0.04,0.01
7:21:02 PM,0.01,-9.01,-4.15,0.00,0.00,0.01
7:21:02 PM,0.04,-8.99,-4.09,0.02,-0.01,0.01
7:21:02 PM,0.18,-9.01,-4.07,-0.00,-0.06,0.01
7:21:02 PM,0.11,-9.09,-3.94,0.01,-0.05,0.01
7:21:02 PM,-0.02,-9.10,-4.02,0.02,0.01,0.01
7:21:02 PM,0.00,-9.14,-4.10,-0.00,0.00,0.01
7:21:02 PM,0.00,-9.00,-4.10,0.03,0.02,0.01
7:21:02 PM,0.18,-9.01,-4.03,-0.00,-0.01,0.01
7:21:03 PM,-0.02,-8.99,-3.98,-0.02,-0.00,0.01
7:21:03 PM,0.02,-9.04,-4.06,0.01,-0.01,0.01
7:21:03 PM,0.13,-9.04,-4.05,0.05,0.03,0.01
7:21:03 PM,0.22,-9.06,-3.94,0.03,0.01,0.01
7:21:03 PM,-0.00,-8.98,-4.09,0.00,-0.01,0.01
7:21:03 PM,-0.02,-8.92,-4.11,0.03,0.04,0.01
7:21:03 PM,0.19,-9.10,-3.91,0.02,-0.01,0.01
7:21:03 PM,0.07,-9.05,-3.99,0.01,-0.04,0.01
7:21:03 PM,0.19,-9.00,-3.99,0.03,0.01,0.01
7:21:04 PM,0.16,-8.93,-4.12,0.01,-0.01,0.01
7:21:04 PM,0.06,-9.02,-4.09,-0.02,-0.02,0.01
7:21:04 PM,0.09,-9.01,-3.98,-0.01,-0.04,0.01
7:21:04 PM,0.06,-9.02,-3.97,0.04,0.04,0.01
7:21:04 PM,0.07,-9.07,-3.95,-0.03,-0.05,0.01
7:21:04 PM,0.18,-9.00,-4.08,-0.01,-0.03,0.01
7:21:04 PM,0.25,-8.93,-4.13,0.02,0.01,0.01
7:21:04 PM,0.18,-9.03,-3.97,0.01,0.00,0.01
7:21:04 PM,0.40,-9.09,-4.08,0.01,-0.01,0.01
7:21:04 PM,0.16,-9.06,-3.96,-0.01,-0.05,0.01
7:21:05 PM,0.19,-9.02,-4.04,-0.01,-0.03,0.01
7:21:05 PM,0.05,-8.96,-4.11,0.00,-0.03,0.01
7:21:05 PM,0.13,-9.07,-3.98,-0.00,-0.05,0.01
7:21:05 PM,0.07,-9.07,-4.04,-0.02,-0.04,0.01
7:21:05 PM,0.07,-9.04,-4.05,0.02,-0.00,0.01
7:21:05 PM,0.12,-9.05,-4.03,-0.02,-0.05,0.01
7:21:05 PM,-0.02,-9.00,-4.06,-0.01,-0.06,0.01
7:21:05 PM,0.21,-9.00,-4.04,0.04,0.02,0.01
7:21:05 PM,0.05,-9.00,-4.05,-0.02,-0.07,0.01
7:21:06 PM,0.17,-9.02,-4.05,0.02,-0.01,0.01
7:21:06 PM,0.11,-9.01,-4.03,0.02,-0.02,0.01
7:21:06 PM,0.13,-9.07,-4.05,0.00,-0.03,0.01
7:21:06 PM,0.13,-9.02,-3.95,0.01,-0.05,0.01
7:21:06 PM,0.05,-9.01,-4.01,0.01,-0.06,0.01
7:21:06 PM,0.00,-9.01,-4.15,0.00,-0.00,0.01
7:21:06 PM,0.11,-8.99,-4.06,0.01,-0.01,0.01
7:21:06 PM,0.11,-9.05,-4.02,-0.01,-0.06,0.01
7:21:06 PM,0.06,-8.97,-4.14,0.01,0.01,0.01
7:21:06 PM,0.10,-9.00,-4.09,-0.03,-0.01,0.01
7:21:07 PM,0.06,-8.95,-4.11,0.01,-0.04,0.01
7:21:07 PM,-0.02,-9.00,-4.04,0.06,0.02,0.01
7:21:07 PM,0.14,-9.16,-4.10,0.06,0.10,0.01
7:21:07 PM,0.21,-9.03,-4.05,0.03,-0.02,0.01
7:21:07 PM,0.00,-9.10,-4.03,0.01,0.02,0.01
7:21:07 PM,0.09,-8.98,-4.13,0.02,0.02,0.01
7:21:07 PM,0.04,-9.04,-4.16,0.04,0.04,0.01
7:21:07 PM,0.07,-8.96,-4.07,-0.01,-0.08,0.01
7:21:07 PM,-0.06,-9.03,-4.12,0.03,0.01,0.01
7:21:08 PM,0.11,-9.03,-4.13,0.02,-0.03,0.01
7:21:08 PM,0.11,-9.01,-4.14,-0.01,-0.02,0.01
7:21:08 PM,0.12,-9.03,-4.14,0.03,-0.00,0.01
7:21:08 PM,0.22,-9.03,-4.04,-0.01,-0.04,0.01
7:21:08 PM,-0.02,-9.00,-4.16,0.00,0.00,0.01
7:21:08 PM,0.07,-9.02,-4.11,0.02,0.00,0.01
7:21:08 PM,0.15,-9.00,-4.15,0.01,-0.03,0.01
7:21:08 PM,0.07,-9.00,-4.17,0.01,-0.03,0.01
7:21:08 PM,0.12,-9.08,-4.12,0.02,0.03,0.01
7:21:08 PM,0.17,-9.15,-4.07,0.00,-0.01,0.01
7:21:09 PM,0.03,-8.99,-4.15,-0.01,0.00,0.01
7:21:09 PM,0.11,-9.01,-4.21,-0.03,0.01,0.01
7:21:09 PM,-0.13,-9.01,-4.13,-0.02,-0.05,0.01
7:21:09 PM,-0.09,-9.01,-4.26,0.02,-0.00,0.01
7:21:09 PM,0.13,-9.10,-4.14,0.05,0.06,0.01
7:21:09 PM,0.21,-9.08,-4.11,0.02,0.04,0.01
7:21:09 PM,-0.00,-8.94,-4.23,0.02,-0.04,0.01
7:21:09 PM,0.16,-9.04,-4.23,0.02,-0.01,0.01
7:21:09 PM,-0.01,-8.96,-3.98,-0.03,-0.09,0.01
7:21:10 PM,-0.12,-8.89,-4.15,0.02,-0.01,0.01
7:21:10 PM,0.08,-9.00,-4.13,0.00,-0.02,0.01
7:21:10 PM,-0.07,-8.89,-4.25,0.02,0.01,0.01
7:21:10 PM,0.06,-8.98,-4.16,0.02,-0.04,0.01
7:21:10 PM,0.11,-8.91,-4.20,0.00,-0.08,0.01
7:21:10 PM,0.02,-8.96,-4.27,-0.02,-0.06,0.01
7:21:10 PM,0.02,-8.99,-4.22,0.03,0.04,0.01
7:21:10 PM,-0.07,-9.17,-4.11,-0.02,-0.07,0.01
7:21:10 PM,0.06,-9.03,-4.14,0.02,0.03,0.01
7:21:11 PM,-0.00,-9.02,-4.21,0.04,-0.02,0.01
7:21:11 PM,0.13,-8.98,-4.24,-0.04,-0.07,0.01
7:21:11 PM,0.02,-8.99,-4.19,-0.00,0.01,0.01
7:21:11 PM,-0.01,-9.02,-4.18,0.01,-0.00,0.01
7:21:11 PM,0.06,-8.95,-4.29,0.01,-0.02,0.01
7:21:11 PM,0.14,-9.05,-4.31,0.00,-0.00,0.01
7:21:11 PM,0.11,-8.91,-4.22,0.03,-0.03,0.01
7:21:11 PM,0.11,-8.96,-4.12,0.01,-0.06,0.01
7:21:11 PM,0.11,-8.95,-4.16,-0.00,-0.04,0.01
7:21:11 PM,0.02,-8.94,-4.22,-0.03,-0.09,0.01
7:21:12 PM,0.09,-8.95,-4.14,0.03,-0.01,0.01
7:21:12 PM,0.05,-8.94,-4.11,0.02,0.00,0.01
7:21:12 PM,0.17,-8.94,-4.19,0.01,-0.00,0.01
7:21:12 PM,0.13,-9.03,-4.16,-0.02,0.02,0.01
7:21:12 PM,0.03,-8.91,-4.26,0.03,-0.02,0.01
7:21:12 PM,0.21,-8.99,-4.16,0.02,0.02,0.01
7:21:12 PM,0.16,-8.98,-4.13,0.02,-0.03,0.01
7:21:12 PM,0.21,-9.00,-4.11,0.04,0.02,0.01
7:21:12 PM,0.22,-8.97,-4.21,0.05,0.02,0.01
7:21:13 PM,0.10,-8.97,-4.09,0.01,-0.02,0.01
7:21:13 PM,0.14,-8.92,-4.11,0.01,-0.06,0.01
7:21:13 PM,0.08,-8.95,-4.16,0.01,-0.04,0.01
7:21:13 PM,0.10,-8.95,-4.12,0.04,0.03,0.01
7:21:13 PM,0.00,-8.94,-4.20,-0.08,-0.13,0.01
7:21:13 PM,0.03,-8.94,-4.31,-0.00,-0.04,0.01
7:21:13 PM,0.19,-8.95,-4.20,0.09,0.08,0.01
7:21:13 PM,0.40,-9.09,-3.89,0.04,0.06,0.01
7:21:13 PM,0.08,-9.06,-3.85,-0.02,-0.10,0.01
7:21:13 PM,0.14,-8.94,-4.19,0.02,0.02,0.01
7:21:14 PM,0.28,-8.97,-4.11,0.03,0.10,0.01
7:21:14 PM,0.36,-9.01,-4.06,0.05,0.04,0.01
7:21:14 PM,0.20,-8.97,-4.04,0.01,-0.02,0.01
7:21:14 PM,0.14,-9.09,-4.06,-0.01,-0.04,0.01
7:21:14 PM,-0.02,-9.05,-4.02,-0.01,-0.05,0.01
7:21:14 PM,0.14,-9.00,-4.16,0.00,-0.05,0.01
7:21:14 PM,0.04,-9.06,-4.12,0.02,0.02,0.01
7:21:14 PM,0.13,-8.99,-4.18,0.00,0.00,0.01
7:21:14 PM,0.16,-8.98,-4.15,0.01,-0.04,0.01
7:21:15 PM,0.03,-8.89,-4.23,0.04,-0.03,0.01
7:21:15 PM,0.13,-8.90,-4.15,-0.01,-0.03,0.01
7:21:15 PM,-0.07,-8.93,-4.04,-0.02,-0.07,0.01
7:21:15 PM,0.10,-8.90,-4.40,-0.01,-0.05,0.01
7:21:15 PM,0.17,-9.03,-4.22,-0.01,-0.04,0.01
7:21:15 PM,0.24,-8.97,-4.14,0.02,-0.01,0.01
7:21:15 PM,0.11,-9.07,-4.07,-0.01,0.01,0.01
7:21:15 PM,0.14,-8.98,-4.18,0.04,-0.02,0.01
7:21:15 PM,0.12,-8.95,-4.19,0.04,0.02,0.01
7:21:15 PM,0.10,-9.07,-4.16,0.07,0.05,0.01
7:21:16 PM,0.34,-9.06,-4.00,0.02,-0.04,0.01
7:21:16 PM,0.21,-8.94,-3.98,-0.00,-0.08,0.01
7:21:16 PM,0.05,-8.96,-4.13,0.00,-0.02,0.01
7:21:16 PM,0.21,-9.01,-4.08,0.03,0.03,0.01
7:21:16 PM,0.11,-8.98,-4.04,0.03,0.01,0.01
7:21:16 PM,0.26,-9.05,-4.11,0.05,0.02,0.01
7:21:16 PM,0.24,-9.01,-3.94,0.04,0.01,0.01
7:21:16 PM,0.30,-9.01,-3.83,-0.00,-0.03,0.01
7:21:16 PM,0.12,-8.99,-3.94,-0.02,-0.09,0.01
7:21:17 PM,0.16,-8.94,-4.22,-0.01,-0.03,0.01
7:21:17 PM,0.13,-8.90,-4.27,-0.02,-0.08,0.01
7:21:17 PM,0.22,-8.94,-3.98,0.00,0.01,0.01
7:21:17 PM,0.08,-9.00,-3.97,-0.03,-0.08,0.01
7:21:17 PM,0.27,-9.05,-4.19,0.00,-0.00,0.01
7:21:17 PM,0.21,-9.00,-4.13,-0.02,-0.05,0.01
7:21:17 PM,0.23,-9.05,-4.17,-0.04,-0.10,0.01
7:21:17 PM,0.23,-8.96,-4.19,0.04,-0.01,0.01
7:21:17 PM,0.28,-8.89,-4.18,-0.01,-0.04,0.01
7:21:17 PM,0.16,-9.06,-4.16,0.01,-0.02,0.01
7:21:18 PM,0.26,-9.00,-4.09,0.04,0.00,0.01
7:21:18 PM,0.17,-8.91,-4.22,-0.02,-0.08,0.01
7:21:18 PM,0.30,-9.11,-4.14,0.02,-0.05,0.01
7:21:18 PM,0.18,-8.99,-4.14,0.04,0.01,0.01
7:21:18 PM,0.34,-9.02,-4.11,0.03,0.02,0.01
7:21:18 PM,0.30,-8.98,-4.13,0.01,-0.04,0.01
7:21:18 PM,0.28,-8.93,-4.05,0.01,0.00,0.01
7:21:18 PM,0.25,-8.99,-4.13,0.01,-0.01,0.01
7:21:18 PM,0.16,-8.96,-4.28,0.06,0.05,0.01
7:21:19 PM,0.14,-8.98,-4.20,0.05,0.05,0.01
7:21:19 PM,0.29,-9.03,-4.04,0.04,0.02,0.01
7:21:19 PM,0.14,-9.00,-4.10,0.01,0.01,0.01
7:21:19 PM,0.20,-9.02,-4.05,0.00,-0.02,0.01
7:21:19 PM,0.24,-9.04,-4.15,-0.02,-0.03,0.01
7:21:19 PM,-0.07,-8.89,-4.19,0.02,0.01,0.01
7:21:19 PM,0.08,-8.96,-4.13,-0.02,-0.04,0.01
7:21:19 PM,0.17,-9.02,-4.00,-0.02,-0.07,0.01
7:21:19 PM,0.06,-8.95,-4.23,0.01,0.04,0.01
7:21:19 PM,-0.03,-8.88,-4.22,0.02,-0.03,0.01
7:21:20 PM,0.23,-8.99,-4.18,0.06,-0.04,0.01
7:21:20 PM,-0.03,-9.04,-3.91,-0.02,-0.03,0.01
7:21:20 PM,0.07,-9.00,-4.19,0.01,-0.01,0.01
7:21:20 PM,0.20,-8.98,-4.15,0.03,0.00,0.01
7:21:20 PM,0.20,-9.07,-4.03,0.02,0.01,0.01
7:21:20 PM,0.26,-9.07,-4.10,0.03,0.01,0.01
7:21:20 PM,0.17,-9.01,-4.03,-0.00,-0.01,0.01
7:21:20 PM,0.12,-8.99,-4.19,0.02,0.03,0.01
7:21:20 PM,0.34,-9.05,-3.99,0.02,-0.01,0.01
7:21:21 PM,0.11,-9.01,-4.09,0.03,0.01,0.01
7:21:21 PM,0.26,-9.02,-4.05,0.03,0.00,0.01
7:21:21 PM,0.26,-9.08,-3.98,0.01,-0.03,0.01
7:21:21 PM,0.24,-8.93,-4.15,0.01,-0.02,0.01
7:21:21 PM,0.07,-9.04,-4.09,0.03,0.04,0.01
7:21:21 PM,0.28,-9.04,-4.11,0.08,0.17,0.01
7:21:21 PM,0.18,-9.62,-3.64,0.26,0.50,0.01
7:21:21 PM,0.18,-9.20,-3.81,-0.01,-0.08,0.01
7:21:21 PM,0.02,-9.15,-3.81,-0.05,-0.09,0.01
7:21:21 PM,0.15,-9.05,-3.92,0.02,-0.02,0.01
7:21:22 PM,0.13,-9.07,-3.96,-0.04,-0.07,0.01
7:21:22 PM,0.17,-9.07,-3.91,-0.00,-0.00,0.01
7:21:22 PM,0.21,-9.08,-3.96,0.02,-0.00,0.01
7:21:22 PM,0.13,-9.02,-3.94,-0.03,-0.04,0.01
7:21:22 PM,0.06,-9.12,-3.90,-0.02,-0.02,0.01
7:21:22 PM,0.08,-9.06,-3.99,0.03,-0.01,0.01
7:21:22 PM,0.25,-9.08,-3.90,0.04,0.02,0.01
7:21:22 PM,0.27,-9.08,-3.77,-0.01,-0.04,0.01
7:21:22 PM,0.12,-9.05,-3.90,-0.02,-0.04,0.01
7:21:23 PM,0.22,-9.01,-3.91,0.05,0.01,0.01
7:21:23 PM,0.33,-8.96,-3.75,0.01,-0.21,0.01
7:21:23 PM,0.14,-9.15,-3.78,0.02,-0.02,0.01
7:21:23 PM,0.08,-9.10,-3.82,-0.01,0.00,0.01
7:21:23 PM,0.26,-9.10,-3.96,0.00,-0.03,0.01
7:21:23 PM,0.31,-9.21,-3.73,-0.03,-0.06,0.01
7:21:23 PM,0.20,-9.05,-3.87,0.01,0.00,0.01
7:21:23 PM,0.15,-9.03,-3.88,-0.02,-0.07,0.01
7:21:23 PM,0.16,-8.93,-3.98,0.01,-0.07,0.01
7:21:24 PM,0.13,-9.00,-3.79,0.04,0.02,0.01
7:21:24 PM,0.20,-9.01,-3.81,-0.01,-0.04,0.01
7:21:24 PM,0.10,-9.11,-4.00,0.00,0.01,0.01
7:21:24 PM,0.06,-9.07,-3.73,0.03,0.00,0.01
7:21:24 PM,0.16,-9.04,-3.85,0.04,0.02,0.01
7:21:24 PM,0.03,-9.06,-3.87,0.02,0.01,0.01
7:21:24 PM,0.22,-9.10,-3.79,0.01,-0.01,0.01
7:21:24 PM,0.10,-9.16,-3.84,0.01,-0.00,0.01
7:21:24 PM,0.08,-9.05,-3.82,0.03,0.01,0.01
7:21:24 PM,0.23,-9.05,-4.00,-0.01,0.00,0.01
7:21:25 PM,0.11,-9.13,-3.82,-0.00,-0.02,0.01
7:21:25 PM,0.07,-9.00,-3.88,0.01,-0.01,0.01
7:21:25 PM,0.03,-9.12,-3.90,-0.04,-0.04,0.01
7:21:25 PM,0.11,-9.08,-3.98,-0.01,-0.05,0.01
7:21:25 PM,0.09,-9.01,-3.89,-0.03,-0.02,0.01
7:21:25 PM,-0.00,-8.95,-4.07,-0.02,-0.04,0.01
7:21:25 PM,0.09,-9.02,-4.01,0.02,-0.04,0.01
7:21:25 PM,0.11,-9.02,-3.93,0.02,-0.03,0.01
7:21:25 PM,0.11,-9.11,-3.94,0.02,-0.02,0.01
7:21:26 PM,0.16,-9.05,-3.88,0.01,-0.07,0.01
7:21:26 PM,-0.06,-9.09,-4.13,-0.00,-0.04,0.01
7:21:26 PM,0.10,-9.08,-3.99,0.08,0.09,0.01
7:21:26 PM,0.10,-9.08,-3.84,0.04,-0.01,0.01
7:21:26 PM,0.02,-9.12,-3.90,0.03,0.00,0.01
7:21:26 PM,0.06,-9.08,-3.77,-0.01,-0.03,0.01
7:21:26 PM,0.21,-9.10,-4.00,-0.04,-0.04,0.01
7:21:26 PM,0.01,-9.07,-3.90,0.04,-0.01,0.01
7:21:26 PM,0.33,-9.12,-3.79,0.02,-0.01,0.01
7:21:26 PM,-0.06,-9.06,-3.86,-0.03,-0.06,0.01
7:21:27 PM,-0.02,-9.00,-3.85,0.02,-0.04,0.01
7:21:27 PM,0.13,-9.10,-3.95,0.02,-0.04,0.01
7:21:27 PM,-0.06,-9.05,-3.85,0.03,0.01,0.01
7:21:27 PM,0.02,-9.06,-3.81,0.04,0.03,0.01
7:21:27 PM,0.06,-9.03,-3.83,0.03,0.02,0.01
7:21:27 PM,0.07,-8.97,-3.89,0.02,-0.03,0.01
7:21:27 PM,0.17,-9.08,-3.77,-0.03,-0.02,0.01
7:21:27 PM,0.13,-9.09,-3.98,-0.06,-0.08,0.01
7:21:27 PM,-0.07,-9.17,-3.98,0.01,-0.05,0.01
7:21:28 PM,-0.04,-9.03,-4.01,0.05,-0.05,0.01
7:21:28 PM,-0.03,-9.10,-3.92,0.01,-0.03,0.01
7:21:28 PM,0.00,-9.11,-3.81,-0.03,-0.08,0.01
7:21:28 PM,-0.13,-9.10,-3.96,0.03,0.04,0.01
7:21:28 PM,-0.01,-9.06,-3.87,0.04,0.02,0.01
7:21:28 PM,0.08,-9.08,-3.92,0.00,-0.03,0.01
7:21:28 PM,-0.20,-9.01,-4.06,-0.04,-0.00,0.01
7:21:28 PM,0.01,-9.06,-4.27,0.05,0.07,0.01
7:21:28 PM,-0.04,-9.01,-3.93,0.06,0.02,0.01
7:21:28 PM,-0.15,-9.10,-4.00,0.04,0.06,0.01
7:21:29 PM,-0.03,-9.04,-3.94,0.01,-0.06,0.01
7:21:29 PM,-0.05,-9.07,-3.92,0.01,0.02,0.01
7:21:29 PM,-0.11,-9.15,-3.75,0.03,-0.03,0.01
7:21:29 PM,-0.11,-9.01,-3.87,0.01,-0.02,0.01
7:21:29 PM,-0.34,-9.00,-4.12,0.02,-0.01,0.01
7:21:29 PM,-0.00,-9.21,-3.76,0.05,0.09,0.01
7:21:29 PM,-0.08,-9.13,-3.89,0.02,0.04,0.01
7:21:29 PM,-0.20,-9.13,-4.02,0.05,0.07,0.01
7:21:29 PM,0.06,-9.13,-3.75,0.03,-0.05,0.01
7:21:30 PM,0.14,-9.15,-3.99,0.00,-0.01,0.01
7:21:30 PM,-0.03,-9.23,-3.79,0.02,0.06,0.01
7:21:30 PM,0.00,-9.05,-3.75,0.08,0.01,0.01
7:21:30 PM,-0.24,-9.00,-3.73,-0.01,-0.13,0.01
7:21:30 PM,-0.02,-9.04,-3.81,0.02,0.01,0.01
7:21:30 PM,0.01,-9.17,-3.74,-0.08,-0.13,0.01
7:21:30 PM,-0.21,-9.17,-3.92,-0.04,-0.09,0.01
7:21:30 PM,-0.11,-9.12,-3.85,-0.01,-0.06,0.01
7:21:30 PM,-0.28,-9.10,-3.86,-0.01,-0.06,0.01
7:21:30 PM,-0.12,-9.13,-3.81,0.01,-0.03,0.01
7:21:31 PM,-0.12,-9.12,-3.85,0.03,0.09,0.01
7:21:31 PM,-0.04,-9.27,-3.56,0.06,0.07,0.01
7:21:31 PM,-0.11,-9.12,-3.66,0.01,-0.02,0.01
7:21:31 PM,-0.10,-9.13,-3.78,-0.02,-0.06,0.01
7:21:31 PM,-0.11,-9.05,-3.84,0.03,0.04,0.01
7:21:31 PM,-0.00,-9.16,-3.78,0.01,0.04,0.01
7:21:31 PM,0.04,-9.06,-3.80,0.02,-0.01,0.01
7:21:31 PM,0.04,-9.15,-3.89,-0.01,-0.04,0.01
7:21:31 PM,0.00,-9.29,-3.67,-0.01,-0.03,0.01
7:21:32 PM,-0.17,-9.13,-3.68,-0.00,-0.07,0.01
7:21:32 PM,-0.03,-9.17,-3.90,0.05,0.06,0.01
7:21:32 PM,-0.09,-9.11,-3.87,0.01,0.05,0.01
7:21:32 PM,-0.22,-9.21,-3.83,0.00,-0.04,0.01
7:21:32 PM,-0.23,-9.05,-3.81,0.06,0.03,0.01
7:21:32 PM,-0.11,-9.14,-3.66,0.00,-0.03,0.01
7:21:32 PM,-0.12,-9.12,-3.82,0.00,0.02,0.01
7:21:32 PM,-0.08,-9.16,-3.86,0.02,0.02,0.01
7:21:32 PM,-0.10,-9.13,-3.57,-0.03,-0.06,0.01
7:21:32 PM,-0.15,-9.04,-3.86,-0.00,-0.03,0.01
7:21:33 PM,0.05,-9.13,-3.76,-0.01,0.07,0.01
7:21:33 PM,-0.09,-9.18,-3.58,0.02,-0.04,0.01
7:21:33 PM,-0.15,-9.00,-3.83,0.04,-0.02,0.01
7:21:33 PM,-0.05,-9.18,-3.79,-0.00,0.02,0.01
7:21:33 PM,-0.02,-8.96,-3.73,0.05,-0.01,0.01
7:21:33 PM,-0.09,-8.89,-3.89,0.02,-0.05,0.01
7:21:33 PM,-0.22,-8.98,-3.74,0.05,0.06,0.01
7:21:33 PM,0.10,-9.03,-3.77,0.03,0.02,0.01
7:21:33 PM,-0.02,-8.99,-3.81,0.07,0.09,0.01
7:21:34 PM,0.19,-9.19,-3.52,0.06,0.09,0.01
7:21:34 PM,-0.01,-9.07,-3.73,-0.01,-0.03,0.01
7:21:34 PM,-0.10,-9.13,-3.81,-0.11,-0.12,0.01
7:21:34 PM,-0.01,-9.10,-3.98,-0.04,-0.05,0.01
7:21:34 PM,-0.23,-9.09,-3.78,-0.02,-0.05,0.01
7:21:34 PM,-0.15,-9.12,-3.74,0.01,-0.00,0.01
7:21:34 PM,-0.12,-9.21,-3.67,-0.03,-0.05,0.01
7:21:34 PM,-0.06,-9.13,-3.94,0.04,0.05,0.01
7:21:34 PM,0.02,-9.08,-3.94,-0.03,-0.07,0.01
7:21:35 PM,-0.21,-9.05,-3.83,0.05,-0.01,0.01
7:21:35 PM,0.11,-9.11,-3.83,0.08,0.06,0.01
7:21:35 PM,-0.05,-9.04,-3.87,-0.02,-0.10,0.01
7:21:35 PM,-0.03,-9.10,-3.73,0.00,-0.04,0.01
7:21:35 PM,-0.08,-8.99,-3.80,0.00,-0.07,0.01
7:21:35 PM,-0.10,-9.06,-3.85,-0.05,-0.11,0.01
7:21:35 PM,-0.18,-9.14,-3.95,-0.02,-0.02,0.01
7:21:35 PM,-0.04,-9.14,-4.04,0.04,0.01,0.01
7:21:35 PM,-0.08,-9.13,-3.88,0.02,0.08,0.01
7:21:35 PM,-0.13,-9.10,-3.91,0.03,0.09,0.01
7:21:36 PM,-0.15,-9.18,-3.90,0.06,0.06,0.01
7:21:36 PM,-0.04,-9.07,-3.74,0.03,0.04,0.01
7:21:36 PM,-0.08,-9.05,-3.85,0.02,-0.03,0.01
7:21:36 PM,-0.12,-8.96,-3.78,0.03,-0.02,0.01
7:21:36 PM,0.21,-9.12,-3.79,-0.04,-0.10,0.01
7:21:36 PM,-0.30,-9.21,-3.75,0.02,0.06,0.01
7:21:36 PM,0.16,-9.21,-3.72,0.02,-0.01,0.01
7:21:36 PM,-0.16,-9.05,-3.71,0.05,0.05,0.01
7:21:36 PM,-0.03,-9.06,-3.75,0.05,0.02,0.01
7:21:37 PM,0.06,-9.27,-3.64,0.03,0.09,0.01
7:21:37 PM,0.03,-9.26,-3.65,0.04,0.10,0.01
7:21:37 PM,-0.16,-9.11,-3.70,0.07,0.11,0.01
7:21:37 PM,-0.15,-9.14,-3.59,0.03,-0.04,0.01
7:21:37 PM,-0.02,-9.18,-3.50,0.01,-0.08,0.01
7:21:37 PM,-0.10,-9.17,-3.51,0.04,0.05,0.01
7:21:37 PM,0.08,-9.17,-3.60,-0.00,-0.04,0.01
7:21:37 PM,0.00,-9.17,-3.50,0.00,-0.06,0.01
7:21:37 PM,-0.11,-9.22,-3.45,-0.03,-0.08,0.01
7:21:37 PM,-0.05,-9.18,-3.45,0.03,-0.03,0.01
7:21:38 PM,-0.12,-9.19,-3.49,-0.02,-0.07,0.01
7:21:38 PM,0.04,-9.17,-3.72,0.02,0.01,0.01
7:21:38 PM,-0.14,-9.13,-3.63,0.01,-0.04,0.01
7:21:38 PM,0.11,-9.22,-3.56,0.00,0.01,0.01
7:21:38 PM,0.01,-9.11,-3.60,0.02,0.02,0.01
7:21:38 PM,-0.01,-9.11,-3.81,0.01,-0.04,0.01
7:21:38 PM,-0.09,-9.19,-3.54,-0.00,-0.02,0.01
7:21:38 PM,-0.04,-9.15,-3.60,0.02,-0.03,0.01
7:21:38 PM,0.10,-9.14,-3.48,0.04,-0.01,0.01
7:21:39 PM,-0.13,-9.07,-3.50,0.00,-0.05,0.01
7:21:39 PM,0.04,-9.18,-3.39,0.02,-0.07,0.01
7:21:39 PM,0.30,-9.26,-3.34,0.00,-0.03,0.01
7:21:39 PM,-0.15,-9.22,-3.53,0.02,0.04,0.01
7:21:39 PM,0.18,-9.16,-3.59,0.00,-0.01,0.01
7:21:39 PM,0.14,-9.12,-3.75,0.01,-0.02,0.01
7:21:39 PM,-0.11,-9.11,-3.59,-0.01,0.01,0.01
7:21:39 PM,0.02,-9.10,-3.50,0.00,-0.03,0.01
7:21:39 PM,-0.02,-9.19,-3.51,-0.03,0.03,0.01
7:21:39 PM,-0.29,-9.06,-3.72,0.03,0.08,0.01
7:21:40 PM,-0.01,-9.25,-3.54,-0.01,0.02,0.01
7:21:40 PM,-0.26,-9.13,-3.64,0.03,-0.01,0.01
7:21:40 PM,0.10,-9.13,-3.70,0.05,0.03,0.01
7:21:40 PM,0.08,-9.04,-3.53,-0.00,-0.00,0.01
7:21:40 PM,-0.26,-9.18,-3.59,0.01,0.06,0.01
7:21:40 PM,0.08,-9.07,-3.70,0.00,-0.02,0.01
7:21:40 PM,-0.12,-9.13,-3.75,-0.02,-0.09,0.01
7:21:40 PM,-0.20,-9.27,-3.48,-0.03,-0.02,0.01
7:21:40 PM,-0.06,-9.28,-3.46,-0.00,-0.05,0.01
7:21:41 PM,-0.08,-9.28,-3.39,0.06,0.08,0.01
7:21:41 PM,-0.07,-9.00,-3.72,-0.00,-0.16,0.01
7:21:41 PM,-0.11,-9.20,-3.55,0.03,-0.05,0.01
7:21:41 PM,-0.27,-9.03,-3.73,0.06,0.15,0.01
7:21:41 PM,0.05,-9.21,-3.44,0.04,0.07,0.01
7:21:41 PM,0.21,-9.14,-3.76,0.04,-0.07,0.01
7:21:41 PM,-0.01,-9.10,-3.68,0.02,0.00,0.01
7:21:41 PM,-0.06,-9.13,-3.73,0.01,0.00,0.01
7:21:41 PM,0.13,-9.23,-3.55,-0.02,-0.06,0.01
7:21:41 PM,-0.15,-9.31,-3.55,-0.02,-0.04,0.01
7:21:42 PM,-0.23,-9.01,-3.69,-0.01,-0.06,0.01
7:21:42 PM,-0.14,-9.08,-3.54,0.02,-0.02,0.01
7:21:42 PM,-0.03,-9.20,-3.61,-0.02,-0.01,0.01
7:21:42 PM,-0.12,-9.19,-3.74,-0.04,-0.00,0.01
7:21:42 PM,-0.20,-9.15,-3.74,0.01,0.04,0.01
7:21:42 PM,-0.05,-9.19,-3.78,0.02,0.02,0.01
7:21:42 PM,-0.04,-9.14,-3.62,0.03,-0.06,0.01
7:21:42 PM,-0.14,-9.17,-3.50,-0.07,-0.08,0.01
7:21:42 PM,-0.03,-9.15,-3.75,0.04,0.07,0.01
7:21:43 PM,-0.05,-9.06,-3.80,0.02,0.02,0.01
7:21:43 PM,-0.09,-9.20,-3.78,0.00,0.01,0.01
7:21:43 PM,-0.06,-9.06,-3.90,0.03,-0.02,0.01
7:21:43 PM,-0.02,-9.08,-3.63,-0.01,-0.07,0.01
7:21:43 PM,-0.11,-9.13,-3.62,-0.06,-0.08,0.01
7:21:43 PM,-0.18,-9.13,-3.75,0.03,0.01,0.01
7:21:43 PM,0.19,-9.07,-3.66,0.03,-0.02,0.01
7:21:43 PM,-0.06,-9.18,-3.64,0.04,0.03,0.01
7:21:43 PM,-0.00,-9.18,-3.62,0.03,0.03,0.01
7:21:43 PM,0.06,-9.08,-3.66,0.00,-0.06,0.01
7:21:44 PM,-0.20,-9.05,-3.78,0.00,-0.04,0.01
7:21:44 PM,-0.18,-9.13,-3.61,0.02,0.01,0.01
7:21:44 PM,0.20,-9.17,-3.75,0.01,-0.00,0.01
7:21:44 PM,-0.08,-9.08,-3.76,0.01,-0.01,0.01
7:21:44 PM,0.05,-9.12,-3.75,0.05,0.01,0.01
7:21:44 PM,0.01,-9.10,-3.67,0.04,0.01,0.01
7:21:44 PM,0.22,-9.15,-3.66,-0.01,-0.05,0.01
7:21:44 PM,0.03,-9.12,-3.70,0.01,-0.02,0.01
7:21:44 PM,0.13,-9.16,-3.61,-0.02,-0.06,0.01
7:21:45 PM,-0.05,-9.15,-3.67,-0.02,-0.01,0.01
7:21:45 PM,0.07,-9.03,-3.74,0.08,0.09,0.01
7:21:45 PM,-0.01,-9.21,-3.61,0.02,0.01,0.01
7:21:45 PM,0.11,-9.18,-3.76,0.03,0.01,0.01
7:21:45 PM,-0.06,-9.15,-3.68,0.01,0.01,0.01
7:21:45 PM,-0.03,-9.06,-3.77,-0.02,-0.02,0.01
7:21:45 PM,-0.07,-9.08,-3.98,0.02,0.07,0.01
7:21:45 PM,-0.03,-9.07,-3.77,0.01,-0.02,0.01
7:21:45 PM,-0.08,-9.04,-3.78,0.03,0.04,0.01
7:21:46 PM,0.05,-9.09,-3.68,0.02,0.02,0.01
7:21:46 PM,0.13,-9.10,-3.68,0.04,-0.04,0.01
7:21:46 PM,-0.07,-9.30,-3.55,-0.01,-0.02,0.01
7:21:46 PM,0.05,-9.14,-3.74,0.02,0.01,0.01
7:21:46 PM,0.09,-9.14,-3.73,-0.00,-0.05,0.01
7:21:46 PM,-0.12,-9.05,-3.68,-0.03,-0.06,0.01
7:21:46 PM,0.05,-9.14,-3.72,-0.02,-0.08,0.01
7:21:46 PM,0.14,-9.10,-3.68,-0.01,-0.05,0.01
7:21:46 PM,-0.06,-9.02,-3.71,-0.08,-0.14,0.01
7:21:46 PM,0.17,-9.01,-3.87,0.04,0.06,0.01
7:21:47 PM,0.16,-9.14,-3.55,-0.03,-0.04,0.01
7:21:47 PM,0.21,-9.17,-3.79,0.08,0.04,0.01
7:21:47 PM,0.00,-9.04,-3.68,0.01,-0.06,0.01
7:21:47 PM,0.01,-9.08,-3.82,-0.00,-0.07,0.01
7:21:47 PM,-0.05,-9.11,-3.90,0.03,-0.00,0.01
7:21:47 PM,-0.18,-9.12,-3.72,0.02,-0.03,0.01
7:21:47 PM,-0.05,-9.17,-3.59,0.02,0.02,0.01
7:21:47 PM,-0.17,-9.19,-3.59,-0.00,-0.02,0.01
7:21:47 PM,0.10,-9.17,-3.70,-0.03,-0.12,0.01
7:21:48 PM,-0.09,-9.04,-3.55,-0.02,-0.05,0.01
7:21:48 PM,-0.03,-9.18,-3.54,0.00,-0.06,0.01
7:21:48 PM,0.14,-9.04,-3.80,0.04,-0.02,0.01
7:21:48 PM,-0.20,-9.11,-3.83,0.03,0.02,0.01
7:21:48 PM,0.02,-9.13,-3.84,0.06,0.05,0.01
7:21:48 PM,0.01,-9.19,-3.77,0.02,0.01,0.01
7:21:48 PM,-0.13,-9.19,-3.58,0.02,0.03,0.01
7:21:48 PM,-0.21,-9.37,-3.85,0.10,0.15,0.01
7:21:48 PM,0.08,-9.16,-3.80,0.01,-0.07,0.01
7:21:48 PM,-0.05,-9.24,-3.48,-0.04,-0.07,0.01
7:21:49 PM,-0.17,-9.09,-3.75,-0.02,0.01,0.01
7:21:49 PM,0.12,-8.99,-3.81,0.04,0.05,0.01
7:21:49 PM,-0.26,-8.99,-3.71,-0.03,-0.10,0.01
7:21:49 PM,-0.28,-9.05,-3.83,-0.00,-0.04,0.01
7:21:49 PM,-0.14,-9.08,-3.89,0.01,0.02,0.01
7:21:49 PM,-0.13,-9.12,-3.86,0.02,0.01,0.01
7:21:49 PM,-0.05,-9.10,-3.73,0.01,-0.03,0.01
7:21:49 PM,-0.06,-9.08,-3.87,-0.03,-0.08,0.01
7:21:49 PM,-0.26,-8.99,-4.01,0.05,0.04,0.01
7:21:50 PM,-0.02,-9.04,-3.93,0.05,0.01,0.01
7:21:50 PM,-0.09,-9.11,-3.86,-0.01,-0.03,0.01
7:21:50 PM,-0.11,-9.09,-3.85,0.05,0.04,0.01
7:21:50 PM,0.06,-9.12,-3.70,-0.02,-0.05,0.01
7:21:50 PM,-0.05,-9.00,-3.90,-0.05,-0.08,0.01
7:21:50 PM,0.05,-9.06,-4.00,0.03,0.00,0.01
7:21:50 PM,-0.04,-9.02,-3.86,-0.01,-0.03,0.01
7:21:50 PM,-0.01,-9.11,-3.83,0.00,-0.06,0.01
7:21:50 PM,-0.00,-9.11,-3.72,-0.00,-0.08,0.01
7:21:50 PM,-0.03,-9.06,-3.81,0.01,-0.04,0.01
7:21:51 PM,-0.18,-9.01,-3.77,0.01,-0.03,0.01
7:21:51 PM,0.17,-9.11,-3.65,-0.00,-0.03,0.01
7:21:51 PM,-0.03,-9.11,-3.75,-0.00,-0.04,0.01
7:21:51 PM,0.06,-9.10,-3.74,0.01,-0.06,0.01
7:21:51 PM,0.06,-9.06,-3.80,-0.05,-0.05,0.01
7:21:51 PM,-0.07,-9.03,-3.96,-0.00,-0.04,0.01
7:21:51 PM,0.07,-9.10,-4.01,0.06,0.03,0.01
7:21:51 PM,-0.04,-9.02,-3.87,0.04,0.03,0.01
7:21:51 PM,0.12,-9.14,-3.79,0.00,-0.04,0.01
7:21:52 PM,-0.06,-9.05,-3.74,0.01,-0.02,0.01
7:21:52 PM,0.13,-9.18,-3.79,0.01,0.03,0.01
7:21:52 PM,0.01,-9.07,-3.97,0.04,0.04,0.01
7:21:52 PM,-0.11,-9.05,-3.72,-0.03,-0.09,0.01
7:21:52 PM,-0.02,-9.15,-3.79,0.02,0.07,0.01
7:21:52 PM,0.02,-9.13,-3.74,-0.01,-0.02,0.01
7:21:52 PM,-0.04,-9.14,-3.94,0.01,0.01,0.01
7:21:52 PM,0.01,-9.12,-3.96,0.04,0.02,0.01
7:21:52 PM,-0.03,-9.22,-3.64,0.00,-0.04,0.01
7:21:52 PM,0.01,-9.05,-3.84,-0.00,-0.04,0.01
7:21:53 PM,0.05,-9.13,-3.85,0.01,0.01,0.01
7:21:53 PM,-0.04,-9.07,-3.88,0.00,-0.02,0.01
7:21:53 PM,0.05,-9.14,-3.77,-0.02,-0.07,0.01
7:21:53 PM,0.04,-9.13,-3.85,0.02,-0.01,0.01
7:21:53 PM,0.11,-9.15,-3.72,0.03,0.02,0.01
7:21:53 PM,-0.08,-9.07,-3.79,0.00,-0.05,0.01
7:21:53 PM,-0.13,-9.02,-3.72,-0.00,-0.04,0.01
7:21:53 PM,0.04,-9.10,-3.88,-0.01,-0.03,0.01
7:21:53 PM,-0.11,-9.12,-3.88,0.01,-0.03,0.01
7:21:54 PM,-0.09,-9.09,-3.79,0.01,-0.03,0.01
7:21:54 PM,0.02,-9.10,-3.85,0.01,-0.01,0.01
7:21:54 PM,0.02,-9.15,-3.69,-0.01,-0.03,0.01
7:21:54 PM,-0.11,-9.04,-3.99,0.00,0.01,0.01
7:21:54 PM,-0.03,-9.11,-3.82,0.02,0.01,0.01
7:21:54 PM,0.07,-9.07,-3.78,0.00,-0.06,0.01
7:21:54 PM,-0.11,-9.07,-3.79,-0.04,-0.08,0.01
7:21:54 PM,-0.05,-9.16,-3.82,0.00,-0.01,0.01
7:21:54 PM,-0.01,-9.14,-3.91,0.02,0.06,0.01
7:21:54 PM,-0.01,-9.11,-3.82,0.03,0.02,0.01
7:21:55 PM,0.04,-9.11,-3.86,-0.02,-0.06,0.01
7:21:55 PM,-0.22,-9.05,-3.85,-0.01,-0.07,0.01
7:21:55 PM,-0.04,-9.04,-4.00,0.02,-0.02,0.01
7:21:55 PM,-0.11,-9.03,-3.82,0.02,0.02,0.01
7:21:55 PM,-0.04,-9.11,-3.82,-0.02,-0.05,0.01
7:21:55 PM,-0.07,-9.16,-3.97,0.03,0.06,0.01
7:21:55 PM,0.09,-9.12,-4.00,0.03,0.04,0.01
7:21:55 PM,-0.05,-9.08,-3.90,-0.01,-0.06,0.01
7:21:55 PM,0.07,-9.09,-3.86,0.03,-0.01,0.01
7:21:56 PM,0.04,-9.09,-3.80,0.01,-0.03,0.01
7:21:56 PM,-0.09,-9.03,-3.92,-0.01,-0.05,0.01
7:21:56 PM,-0.12,-9.16,-3.83,0.02,0.02,0.01
7:21:56 PM,-0.05,-9.12,-3.94,0.02,-0.04,0.01
7:21:56 PM,-0.02,-9.09,-3.88,0.01,-0.02,0.01
7:21:56 PM,-0.08,-9.02,-3.95,-0.00,-0.05,0.01
7:21:56 PM,-0.02,-9.07,-3.78,0.03,0.02,0.01
7:21:56 PM,0.05,-9.15,-3.80,0.00,-0.04,0.01
7:21:56 PM,-0.02,-9.16,-3.84,0.02,-0.01,0.01
7:21:56 PM,0.01,-9.09,-3.74,0.00,-0.06,0.01
7:21:57 PM,-0.08,-9.11,-3.78,-0.02,-0.10,0.01
7:21:57 PM,0.06,-9.03,-3.90,-0.04,-0.05,0.01
7:21:57 PM,0.03,-9.13,-3.91,-0.00,0.06,0.01
7:21:57 PM,0.02,-9.12,-3.79,0.01,-0.04,0.01
7:21:57 PM,0.10,-9.12,-3.89,0.04,0.03,0.01
7:21:57 PM,0.09,-9.05,-3.90,-0.01,0.00,0.01
7:21:57 PM,-0.00,-9.07,-3.72,0.01,-0.05,0.01
7:21:57 PM,0.06,-9.05,-3.89,-0.01,-0.05,0.01
7:21:57 PM,-0.03,-9.13,-3.77,-0.04,-0.08,0.01
7:21:58 PM,-0.01,-9.09,-3.85,0.01,-0.02,0.01
7:21:58 PM,0.03,-9.15,-3.83,0.04,0.10,0.01
7:21:58 PM,-0.08,-9.09,-3.85,0.02,0.05,0.01
7:21:58 PM,-0.19,-9.04,-3.96,0.01,0.03,0.01
7:21:58 PM,-0.13,-9.08,-3.94,0.07,0.12,0.01
7:21:58 PM,-0.11,-9.10,-3.81,-0.00,-0.01,0.01
7:21:58 PM,-0.13,-9.11,-3.86,0.02,0.01,0.01
7:21:58 PM,0.01,-9.18,-3.75,0.03,0.03,0.01
7:21:58 PM,0.04,-9.07,-3.83,0.02,-0.02,0.01
7:21:59 PM,-0.06,-9.09,-3.74,-0.01,-0.08,0.01
7:21:59 PM,0.00,-9.09,-3.91,0.00,-0.04,0.01
7:21:59 PM,-0.06,-9.10,-3.81,0.01,0.01,0.01
7:21:59 PM,-0.06,-8.98,-3.85,0.05,0.03,0.01
7:21:59 PM,0.22,-9.19,-3.84,0.04,0.07,0.01
7:21:59 PM,0.03,-9.04,-3.90,0.04,0.03,0.01
7:21:59 PM,-0.05,-9.17,-3.82,-0.01,0.01,0.01
7:21:59 PM,0.06,-9.22,-3.93,0.04,0.01,0.01
7:21:59 PM,-0.13,-9.10,-3.69,0.02,-0.00,0.01
7:21:59 PM,-0.12,-9.08,-3.81,-0.00,-0.09,0.01
7:22:00 PM,0.03,-9.16,-3.79,0.05,-0.00,0.01
7:22:00 PM,-0.09,-9.08,-3.80,0.00,-0.07,0.01
7:22:00 PM,-0.07,-9.22,-3.78,-0.01,-0.01,0.01
7:22:00 PM,-0.11,-9.16,-3.85,0.05,0.03,0.01
7:22:00 PM,-0.04,-9.10,-3.75,0.03,-0.02,0.01
7:22:00 PM,0.02,-9.28,-3.50,0.06,0.04,0.01
7:22:00 PM,0.10,-9.15,-3.90,0.02,0.08,0.01
7:22:00 PM,-0.18,-9.22,-3.44,0.05,0.05,0.01
7:22:00 PM,-0.22,-9.09,-3.62,0.02,-0.00,0.01
7:22:01 PM,-0.10,-9.19,-3.47,-0.01,-0.08,0.01
7:22:01 PM,-0.04,-9.20,-3.29,-0.03,-0.08,0.01
7:22:01 PM,-0.17,-9.13,-3.64,-0.01,0.00,0.01
7:22:01 PM,-0.06,-9.12,-3.69,0.03,0.01,0.01
7:22:01 PM,-0.22,-9.21,-3.41,0.02,-0.01,0.01
7:22:01 PM,-0.14,-9.15,-3.47,0.04,-0.01,0.01
7:22:01 PM,-0.31,-9.06,-3.42,-0.02,-0.10,0.01
7:22:01 PM,0.03,-9.23,-3.45,0.03,-0.08,0.01
7:22:01 PM,-0.08,-9.11,-3.69,0.01,-0.05,0.01
7:22:01 PM,-0.13,-9.16,-3.41,0.02,0.03,0.01
7:22:02 PM,-0.03,-9.19,-3.44,-0.01,0.00,0.01
7:22:02 PM,-0.12,-9.07,-3.47,0.01,-0.02,0.01
7:22:02 PM,-0.18,-9.21,-3.47,0.03,0.05,0.01
7:22:02 PM,-0.11,-9.11,-3.60,0.02,0.06,0.01
7:22:02 PM,-0.17,-9.15,-3.63,0.00,-0.02,0.01
7:22:02 PM,-0.22,-9.17,-3.65,0.01,-0.05,0.01
7:22:02 PM,0.02,-9.14,-3.75,0.05,0.04,0.01
7:22:02 PM,-0.14,-9.09,-3.42,-0.03,-0.01,0.01
7:22:02 PM,-0.25,-9.10,-3.67,0.02,0.02,0.01
7:22:03 PM,-0.07,-9.19,-3.42,-0.02,-0.12,0.01
7:22:03 PM,-0.05,-9.13,-3.44,-0.02,-0.17,0.01
7:22:03 PM,-0.21,-9.18,-3.46,-0.01,-0.05,0.01
7:22:03 PM,0.01,-9.22,-3.44,0.00,-0.01,0.01
7:22:03 PM,-0.15,-9.18,-3.69,-0.00,-0.05,0.01
7:22:03 PM,-0.10,-9.17,-3.62,-0.03,-0.06,0.01
7:22:03 PM,-0.30,-9.13,-3.67,0.03,0.02,0.01
7:22:03 PM,-0.06,-9.12,-3.84,0.03,-0.02,0.01
7:22:03 PM,-0.29,-9.25,-3.43,0.01,0.04,0.01
7:22:03 PM,0.08,-9.14,-3.52,-0.06,-0.06,0.01
7:22:04 PM,-0.03,-9.22,-3.42,0.00,-0.05,0.01
7:22:04 PM,-0.06,-9.21,-3.34,-0.02,-0.07,0.01
7:22:04 PM,-0.04,-9.20,-3.53,0.02,-0.03,0.01
7:22:04 PM,0.03,-9.13,-3.67,0.07,0.03,0.01
7:22:04 PM,-0.23,-9.22,-3.65,0.04,-0.02,0.01
7:22:04 PM,-0.24,-9.10,-3.76,0.03,-0.00,0.01
7:22:04 PM,-0.11,-9.15,-3.67,0.01,0.01,0.01
7:22:04 PM,-0.15,-9.18,-3.70,-0.03,-0.07,0.01
7:22:04 PM,-0.24,-9.07,-3.76,0.04,0.02,0.01
7:22:05 PM,-0.16,-9.06,-3.70,0.04,-0.02,0.01
7:22:05 PM,-0.07,-9.14,-3.46,-0.02,-0.08,0.01
7:22:05 PM,-0.17,-9.17,-3.46,-0.01,-0.01,0.01
7:22:05 PM,0.06,-9.21,-3.77,0.00,-0.03,0.01
7:22:05 PM,-0.35,-9.08,-3.76,-0.00,-0.12,0.01
7:22:05 PM,-0.14,-9.19,-3.57,-0.01,-0.09,0.01
7:22:05 PM,-0.11,-9.04,-3.75,0.02,-0.00,0.01
7:22:05 PM,-0.06,-9.15,-3.41,0.01,-0.01,0.01
7:22:05 PM,-0.13,-9.11,-3.41,-0.02,-0.08,0.01
7:22:05 PM,-0.17,-9.16,-3.55,0.00,-0.02,0.01
7:22:06 PM,-0.02,-9.20,-3.52,0.00,-0.01,0.01
7:22:06 PM,-0.23,-9.10,-3.76,0.03,0.06,0.01
7:22:06 PM,-0.03,-9.18,-3.48,-0.01,0.02,0.01
7:22:06 PM,-0.24,-9.15,-3.44,-0.00,-0.07,0.01
7:22:06 PM,0.15,-9.22,-3.32,0.02,-0.03,0.01
7:22:06 PM,0.01,-9.13,-3.65,0.01,-0.05,0.01
7:22:06 PM,-0.05,-9.22,-3.59,0.04,0.01,0.01
7:22:06 PM,-0.06,-9.39,-3.43,-0.01,-0.07,0.01
7:22:06 PM,-0.23,-9.17,-3.40,0.03,-0.04,0.01
7:22:07 PM,-0.17,-9.20,-3.30,-0.03,-0.08,0.01
7:22:07 PM,-0.23,-9.19,-3.52,-0.00,-0.05,0.01
7:22:07 PM,0.06,-9.32,-3.40,0.00,0.01,0.01
7:22:07 PM,0.25,-9.34,-3.56,0.04,0.16,0.01
7:22:07 PM,-0.24,-9.17,-3.53,-0.02,-0.10,0.01
7:22:07 PM,-0.10,-9.21,-3.45,0.03,-0.04,0.01
7:22:07 PM,-0.34,-9.17,-3.40,-0.02,-0.11,0.01
7:22:07 PM,-0.15,-9.27,-3.41,-0.01,-0.07,0.01
7:22:07 PM,-0.06,-9.22,-3.75,-0.01,-0.06,0.01
7:22:07 PM,-0.16,-9.11,-3.77,-0.00,-0.08,0.01
7:22:08 PM,-0.17,-9.21,-3.45,0.03,-0.01,0.01
7:22:08 PM,-0.09,-9.11,-3.66,-0.01,-0.04,0.01
7:22:08 PM,-0.06,-9.20,-3.46,0.02,0.02,0.01
7:22:08 PM,-0.07,-9.16,-3.51,0.01,-0.01,0.01
7:22:08 PM,-0.08,-9.20,-3.45,-0.01,-0.06,0.01
7:22:08 PM,-0.13,-9.11,-3.29,-0.03,-0.11,0.01
7:22:08 PM,0.13,-9.28,-3.29,0.00,-0.09,0.01
7:22:08 PM,0.06,-9.30,-3.22,-0.01,-0.10,0.01
7:22:08 PM,0.00,-9.22,-3.51,0.03,-0.05,0.01
7:22:09 PM,-0.03,-9.15,-3.39,0.02,-0.06,0.01
7:22:09 PM,-0.17,-9.37,-3.44,-0.02,-0.07,0.01
7:22:09 PM,-0.26,-9.17,-3.60,-0.03,-0.05,0.01
7:22:09 PM,-0.13,-9.27,-3.59,-0.04,-0.05,0.01
7:22:09 PM,-0.46,-9.26,-3.56,-0.02,-0.08,0.01
7:22:09 PM,-0.25,-9.22,-3.54,-0.02,-0.03,0.01
7:22:09 PM,-0.36,-9.08,-3.87,0.02,-0.02,0.01
7:22:09 PM,-0.28,-9.10,-3.57,0.05,0.06,0.01
7:22:09 PM,-0.19,-9.19,-3.55,0.01,-0.01,0.01
7:22:09 PM,-0.24,-9.12,-3.57,0.00,-0.05,0.01
7:22:10 PM,-0.09,-9.20,-3.56,0.02,-0.01,0.01
7:22:10 PM,-0.25,-9.16,-3.50,-0.00,-0.08,0.01
7:22:10 PM,-0.18,-9.29,-3.46,0.02,-0.03,0.01
7:22:10 PM,-0.02,-9.24,-3.44,0.01,-0.03,0.01
7:22:10 PM,0.02,-9.22,-3.56,-0.00,-0.04,0.01
7:22:10 PM,-0.02,-9.18,-3.44,0.01,-0.05,0.01
7:22:10 PM,-0.14,-9.16,-3.65,0.04,0.00,0.01
7:22:10 PM,-0.21,-9.08,-3.43,0.02,-0.03,0.01
7:22:10 PM,-0.06,-9.24,-3.63,0.03,0.00,0.01
7:22:11 PM,-0.26,-9.08,-3.53,0.02,-0.01,0.01
7:22:11 PM,0.01,-9.25,-3.63,0.04,0.02,0.01
7:22:11 PM,-0.16,-9.35,-3.36,0.05,0.06,0.01
7:22:11 PM,-0.06,-9.28,-3.37,0.01,-0.05,0.01
7:22:11 PM,-0.03,-9.30,-3.40,0.01,-0.03,0.01
7:22:11 PM,-0.06,-9.18,-3.63,-0.01,-0.04,0.01
7:22:11 PM,-0.13,-9.23,-3.61,-0.00,0.02,0.01
7:22:11 PM,-0.04,-9.13,-3.60,0.03,-0.02,0.01
7:22:11 PM,-0.23,-9.10,-3.61,-0.01,-0.00,0.01
7:22:12 PM,-0.10,-9.20,-3.34,0.01,-0.02,0.01
7:22:12 PM,-0.15,-9.19,-3.52,-0.02,-0.05,0.01
7:22:12 PM,-0.17,-9.05,-3.57,0.01,0.03,0.01
7:22:12 PM,-0.39,-9.12,-3.47,0.03,0.01,0.01
7:22:12 PM,-0.20,-9.17,-3.48,0.01,-0.06,0.01
7:22:12 PM,-0.08,-9.21,-3.44,-0.04,-0.12,0.01
7:22:12 PM,-0.28,-9.15,-3.53,-0.00,-0.05,0.01
7:22:12 PM,-0.30,-9.12,-3.62,0.03,0.04,0.01
7:22:12 PM,0.07,-9.12,-3.72,0.01,-0.02,0.01
7:22:12 PM,-0.26,-9.59,-3.49,0.21,-0.04,0.01
7:22:13 PM,-0.19,-9.07,-3.60,0.02,-0.05,0.01
7:22:13 PM,-0.15,-9.05,-3.47,0.04,-0.07,0.01
7:22:13 PM,-0.21,-9.17,-3.24,-0.03,-0.08,0.01
7:22:13 PM,-0.22,-9.10,-3.66,0.02,0.05,0.01
7:22:13 PM,-0.26,-9.22,-3.51,0.02,0.01,0.01
7:22:13 PM,0.06,-9.13,-3.61,0.02,-0.03,0.01
7:22:13 PM,-0.34,-9.06,-3.57,0.05,0.03,0.01
7:22:13 PM,-0.14,-9.20,-3.52,0.04,0.06,0.01
7:22:13 PM,-0.28,-9.31,-3.45,-0.01,-0.06,0.01
7:22:14 PM,-0.12,-9.18,-3.57,-0.03,-0.10,0.01
7:22:14 PM,-0.08,-9.20,-3.35,-0.02,-0.05,0.01
7:22:14 PM,-0.13,-9.25,-3.50,-0.02,-0.00,0.01
7:22:14 PM,-0.11,-9.19,-3.51,0.02,0.01,0.01
7:22:14 PM,-0.12,-9.16,-3.50,0.01,-0.02,0.01
7:22:14 PM,-0.10,-9.24,-3.59,0.03,0.02,0.01
7:22:14 PM,-0.05,-9.27,-3.37,-0.02,-0.04,0.01
7:22:14 PM,-0.24,-9.20,-3.45,0.00,-0.02,0.01
7:22:14 PM,-0.24,-9.14,-3.51,0.02,-0.02,0.01
7:22:14 PM,-0.10,-9.17,-3.52,0.02,0.05,0.01
7:22:15 PM,-0.25,-9.09,-3.54,-0.01,-0.09,0.01
7:22:15 PM,-0.11,-9.22,-3.28,0.04,0.05,0.01
7:22:15 PM,-0.03,-9.20,-3.40,0.01,-0.01,0.01
7:22:15 PM,-0.05,-9.08,-3.47,0.01,-0.05,0.01
7:22:15 PM,-0.11,-9.22,-3.47,-0.02,-0.03,0.01
7:22:15 PM,-0.17,-9.13,-3.48,0.03,-0.02,0.01
7:22:15 PM,-0.09,-9.17,-3.39,0.04,0.05,0.01
7:22:15 PM,-0.06,-9.17,-3.54,0.06,0.12,0.01
7:22:15 PM,-0.19,-9.22,-3.43,0.04,-0.00,0.01
7:22:16 PM,-0.24,-9.22,-3.24,0.02,-0.03,0.01
7:22:16 PM,0.01,-9.22,-3.35,-0.01,-0.05,0.01
7:22:16 PM,-0.19,-9.17,-3.43,-0.01,-0.06,0.01
7:22:16 PM,-0.10,-9.17,-3.28,-0.01,-0.10,0.01
7:22:16 PM,-0.35,-9.14,-3.38,0.02,-0.01,0.01
7:22:16 PM,-0.08,-9.28,-3.22,-0.00,0.00,0.01
7:22:16 PM,0.00,-9.24,-3.39,0.01,0.00,0.01
7:22:16 PM,-0.01,-9.22,-3.45,0.00,-0.01,0.01
7:22:16 PM,-0.03,-9.18,-3.47,0.03,0.02,0.01
7:22:16 PM,-0.00,-9.23,-3.53,0.02,0.03,0.01
7:22:17 PM,0.01,-9.24,-3.43,0.02,-0.04,0.01
7:22:17 PM,-0.14,-9.23,-3.43,-0.02,-0.07,0.01
7:22:17 PM,-0.04,-9.22,-3.43,0.03,0.03,0.01
7:22:17 PM,-0.13,-9.13,-3.46,-0.02,-0.05,0.01
7:22:17 PM,-0.05,-9.19,-3.28,0.01,-0.05,0.01
7:22:17 PM,-0.02,-9.28,-3.22,-0.02,-0.06,0.01
7:22:17 PM,-0.09,-9.28,-3.36,0.01,-0.01,0.01
7:22:17 PM,-0.14,-9.18,-3.40,-0.00,-0.05,0.01
7:22:17 PM,-0.03,-9.22,-3.55,0.02,0.07,0.01
7:22:18 PM,-0.14,-9.19,-3.41,0.00,0.02,0.01
7:22:18 PM,-0.12,-9.20,-3.29,0.00,-0.04,0.01
7:22:18 PM,-0.02,-9.24,-3.33,-0.04,-0.14,0.01
7:22:18 PM,-0.18,-9.23,-3.39,0.01,0.00,0.01
7:22:18 PM,-0.12,-9.13,-3.50,0.03,-0.01,0.01
7:22:18 PM,-0.07,-9.20,-3.49,-0.02,-0.06,0.01
7:22:18 PM,-0.19,-9.19,-3.55,0.03,0.03,0.01
7:22:18 PM,-0.16,-9.15,-3.49,0.05,0.00,0.01
7:22:18 PM,0.00,-9.20,-3.39,0.01,0.00,0.01
7:22:18 PM,-0.13,-9.18,-3.46,-0.06,-0.12,0.01
7:22:19 PM,-0.09,-9.23,-3.56,0.01,0.01,0.01
7:22:19 PM,-0.10,-9.17,-3.45,0.03,-0.04,0.01
7:22:19 PM,-0.09,-9.17,-3.48,0.02,0.05,0.01
7:22:19 PM,-0.13,-9.16,-3.65,0.04,0.12,0.01
7:22:19 PM,-0.23,-9.15,-3.56,0.04,0.06,0.01
7:22:19 PM,-0.06,-9.32,-3.37,-0.03,-0.07,0.01
7:22:19 PM,-0.05,-9.17,-3.56,0.03,0.03,0.01
7:22:19 PM,-0.16,-9.17,-3.66,0.00,-0.06,0.01
7:22:19 PM,-0.13,-9.15,-3.48,0.03,-0.01,0.01
7:22:20 PM,-0.13,-9.24,-3.47,0.01,0.01,0.01
7:22:20 PM,-0.19,-9.17,-3.41,0.01,-0.01,0.01
7:22:20 PM,-0.14,-9.17,-3.43,-0.01,-0.04,0.01
7:22:20 PM,-0.14,-9.17,-3.47,0.00,-0.03,0.01
7:22:20 PM,-0.15,-9.20,-3.55,0.03,0.03,0.01
7:22:20 PM,-0.20,-9.13,-3.50,0.03,-0.01,0.01
7:22:20 PM,-0.06,-9.17,-3.36,-0.02,-0.09,0.01
7:22:20 PM,-0.30,-9.20,-3.28,0.02,-0.00,0.01
7:22:20 PM,-0.01,-9.22,-3.39,0.04,-0.02,0.01
7:22:20 PM,-0.09,-9.15,-3.34,0.02,-0.02,0.01
7:22:21 PM,-0.12,-9.17,-3.25,0.00,-0.05,0.01
7:22:21 PM,0.19,-9.28,-3.36,0.01,0.01,0.01
7:22:21 PM,0.18,-9.33,-3.34,-0.02,-0.04,0.01
7:22:21 PM,-0.11,-9.20,-3.46,0.01,0.00,0.01
7:22:21 PM,-0.00,-9.17,-3.54,0.00,-0.03,0.01
7:22:21 PM,-0.02,-9.19,-3.59,-0.02,-0.02,0.01
7:22:21 PM,-0.23,-9.16,-3.44,0.02,-0.01,0.01
7:22:21 PM,0.00,-9.27,-3.42,0.00,-0.01,0.01
7:22:21 PM,-0.16,-9.20,-3.43,0.01,-0.01,0.01
7:22:22 PM,-0.12,-9.20,-3.40,-0.02,-0.06,0.01
7:22:22 PM,0.12,-9.26,-3.51,-0.00,0.01,0.01
7:22:22 PM,0.00,-9.23,-3.53,0.01,0.00,0.01
7:22:22 PM,-0.15,-9.19,-3.52,0.02,0.03,0.01
7:22:22 PM,-0.19,-9.21,-3.39,0.02,0.00,0.01
7:22:22 PM,-0.08,-9.13,-3.65,-0.01,-0.03,0.01
7:22:22 PM,-0.21,-9.20,-3.47,-0.01,-0.07,0.01
7:22:22 PM,-0.19,-9.17,-3.49,0.04,0.04,0.01
7:22:22 PM,-0.04,-9.12,-3.45,0.01,-0.00,0.01
7:22:23 PM,-0.10,-9.19,-3.55,-0.00,-0.07,0.01
7:22:23 PM,0.07,-9.22,-3.56,0.02,0.01,0.01
7:22:23 PM,-0.19,-9.20,-3.45,-0.01,-0.03,0.01
7:22:23 PM,-0.19,-9.18,-3.43,0.00,-0.06,0.01
7:22:23 PM,-0.06,-9.20,-3.51,0.03,0.02,0.01
7:22:23 PM,-0.00,-9.17,-3.55,0.03,-0.02,0.01
7:22:23 PM,0.10,-9.25,-3.36,0.03,0.02,0.01
7:22:23 PM,-0.23,-9.17,-3.45,0.01,-0.03,0.01
7:22:23 PM,-0.23,-9.19,-3.44,0.02,0.00,0.01
7:22:23 PM,-0.09,-9.22,-3.42,0.03,-0.00,0.01
7:22:24 PM,-0.19,-9.11,-3.44,-0.01,-0.06,0.01
7:22:24 PM,-0.23,-9.12,-3.38,-0.03,-0.08,0.01
7:22:24 PM,-0.12,-9.15,-3.46,-0.01,-0.07,0.01
7:22:24 PM,-0.06,-9.24,-3.44,0.02,-0.03,0.01
7:22:24 PM,-0.08,-9.11,-3.39,-0.01,-0.07,0.01
7:22:24 PM,-0.11,-9.17,-3.53,0.02,-0.03,0.01
7:22:24 PM,0.03,-9.22,-3.48,0.06,0.07,0.01
7:22:24 PM,-0.09,-9.16,-3.65,0.04,0.03,0.01
7:22:24 PM,-0.06,-9.16,-3.34,0.03,-0.06,0.01
7:22:25 PM,-0.10,-9.06,-3.38,-0.06,-0.00,0.01
7:22:25 PM,-0.07,-9.12,-3.63,0.07,-0.02,0.01
7:22:25 PM,-0.09,-9.28,-3.29,0.05,-0.02,0.01
7:22:25 PM,-0.06,-9.10,-3.23,0.06,0.00,0.01
7:22:25 PM,-0.14,-9.29,-3.37,-0.03,-0.06,0.01
7:22:25 PM,-0.11,-9.23,-3.33,-0.00,-0.02,0.01
7:22:25 PM,-0.09,-9.16,-3.39,0.00,-0.03,0.01
7:22:25 PM,-0.07,-9.20,-3.47,0.02,-0.01,0.01
7:22:25 PM,-0.14,-9.23,-3.44,0.01,-0.04,0.01
7:22:25 PM,-0.30,-9.09,-3.66,-0.08,-0.11,0.01
7:22:26 PM,-0.13,-9.26,-3.27,0.03,-0.03,0.01
7:22:26 PM,-0.13,-9.09,-3.48,0.02,0.00,0.01
7:22:26 PM,-0.21,-9.10,-3.34,0.01,-0.02,0.01
7:22:26 PM,0.04,-9.28,-3.34,-0.01,-0.03,0.01
7:22:26 PM,-0.10,-9.24,-3.54,0.01,-0.04,0.01
7:22:26 PM,-0.02,-9.19,-3.42,-0.04,-0.05,0.01
7:22:26 PM,-0.18,-9.17,-3.55,-0.02,-0.07,0.01
7:22:26 PM,-0.31,-9.16,-3.33,0.01,-0.06,0.01
7:22:26 PM,-0.04,-9.24,-3.44,0.01,-0.02,0.01
7:22:27 PM,-0.00,-9.21,-3.43,0.00,-0.07,0.01
7:22:27 PM,-0.12,-9.15,-3.53,0.00,0.02,0.01
7:22:27 PM,-0.23,-9.18,-3.46,0.01,0.04,0.01
7:22:27 PM,-0.16,-9.15,-3.51,0.01,-0.01,0.01
7:22:27 PM,0.03,-9.25,-3.56,0.04,0.09,0.01
7:22:27 PM,-0.14,-9.16,-3.54,0.04,0.05,0.01
7:22:27 PM,0.06,-9.20,-3.46,0.01,0.04,0.01
7:22:27 PM,-0.16,-9.23,-3.39,0.02,-0.02,0.01
7:22:27 PM,0.01,-9.22,-3.60,0.03,0.03,0.01
7:22:27 PM,-0.20,-9.22,-3.34,0.01,0.00,0.01
7:22:28 PM,-0.13,-9.12,-3.49,0.03,0.00,0.01
7:22:28 PM,-0.19,-9.18,-3.44,-0.01,-0.03,0.01
7:22:28 PM,0.03,-9.21,-3.34,-0.02,-0.07,0.01
7:22:28 PM,-0.17,-9.22,-3.52,-0.02,-0.08,0.01
7:22:28 PM,-0.14,-9.11,-3.46,-0.00,-0.05,0.01
7:22:28 PM,-0.03,-9.25,-3.41,-0.01,-0.04,0.01
7:22:28 PM,-0.03,-9.13,-3.54,-0.02,-0.05,0.01
7:22:28 PM,-0.16,-9.17,-3.64,0.01,0.02,0.01
7:22:28 PM,-0.12,-9.18,-3.56,0.01,-0.03,0.01
7:22:29 PM,-0.07,-9.17,-3.47,-0.01,-0.03,0.01
7:22:29 PM,-0.12,-9.15,-3.57,0.04,0.03,0.01
7:22:29 PM,-0.13,-9.15,-3.44,0.01,-0.00,0.01
7:22:29 PM,-0.18,-9.19,-3.54,0.03,0.01,0.01
7:22:29 PM,-0.22,-9.17,-3.54,0.02,0.02,0.01
7:22:29 PM,-0.25,-9.19,-3.42,0.02,0.00,0.01
7:22:29 PM,-0.07,-9.18,-3.43,-0.01,-0.05,0.01
7:22:29 PM,-0.14,-9.16,-3.45,0.02,-0.03,0.01
7:22:29 PM,0.06,-9.21,-3.54,-0.00,-0.04,0.01
7:22:29 PM,-0.19,-9.13,-3.56,0.01,0.00,0.01
7:22:30 PM,-0.25,-9.15,-3.52,0.01,-0.05,0.01
7:22:30 PM,-0.27,-9.11,-3.43,-0.01,-0.06,0.01
7:22:30 PM,-0.08,-9.20,-3.55,-0.01,-0.04,0.01
7:22:30 PM,-0.14,-9.21,-3.58,0.01,0.01,0.01
7:22:30 PM,-0.18,-9.17,-3.42,-0.00,-0.04,0.01
7:22:30 PM,-0.03,-9.21,-3.60,0.05,0.08,0.01
7:22:30 PM,0.00,-9.11,-3.52,0.04,-0.01,0.01
7:22:30 PM,-0.23,-9.12,-3.56,0.01,0.02,0.01
7:22:30 PM,-0.14,-9.18,-3.54,0.03,0.03,0.01
7:22:31 PM,-0.02,-9.21,-3.50,0.01,-0.03,0.01
7:22:31 PM,-0.09,-9.24,-3.47,0.00,-0.01,0.01
7:22:31 PM,-0.12,-9.12,-3.52,0.00,-0.05,0.01
7:22:31 PM,-0.00,-9.07,-3.63,-0.02,-0.05,0.01
7:22:31 PM,-0.08,-9.21,-3.69,-0.01,-0.03,0.01
7:22:31 PM,-0.20,-9.16,-3.53,0.02,-0.03,0.01
7:22:31 PM,-0.28,-9.05,-3.66,-0.01,-0.00,0.01
7:22:31 PM,-0.43,-9.12,-3.60,-0.01,-0.01,0.01
7:22:31 PM,-0.23,-9.12,-3.60,-0.04,-0.08,0.01
7:22:31 PM,-0.16,-9.11,-3.67,-0.01,-0.04,0.01
7:22:32 PM,-0.15,-9.14,-3.69,0.00,0.01,0.01
7:22:32 PM,-0.07,-9.16,-3.62,-0.01,-0.04,0.01
7:22:32 PM,-0.22,-9.16,-3.67,-0.02,-0.02,0.01
7:22:32 PM,-0.10,-9.13,-3.66,0.03,-0.01,0.01
7:22:32 PM,-0.17,-9.11,-3.63,0.04,0.03,0.01
7:22:32 PM,-0.17,-9.14,-3.58,0.03,0.01,0.01
7:22:32 PM,-0.09,-9.20,-3.70,0.01,-0.04,0.01
7:22:32 PM,-0.17,-9.13,-3.71,0.03,-0.04,0.01
7:22:32 PM,-0.13,-9.08,-3.72,0.02,-0.01,0.01
7:22:33 PM,-0.03,-9.16,-3.62,0.03,-0.01,0.01
7:22:33 PM,0.05,-9.18,-3.54,0.03,0.01,0.01
7:22:33 PM,-0.06,-9.14,-3.61,-0.00,-0.07,0.01
7:22:33 PM,-0.12,-9.17,-3.64,-0.00,0.00,0.01
7:22:33 PM,-0.20,-9.12,-3.59,0.01,-0.03,0.01
7:22:33 PM,-0.19,-9.22,-3.44,0.08,0.11,0.01
7:22:33 PM,0.19,-9.16,-3.50,0.04,-0.03,0.01
7:22:33 PM,-0.01,-9.28,-3.31,-0.01,-0.06,0.01
7:22:33 PM,-0.09,-9.24,-3.35,-0.01,-0.06,0.01
7:22:33 PM,-0.18,-9.16,-3.54,0.03,-0.00,0.01
7:22:34 PM,0.27,-9.19,-3.47,0.04,0.04,0.01
7:22:34 PM,-0.28,-9.14,-3.53,0.00,-0.01,0.01
7:22:34 PM,-0.03,-9.15,-3.55,0.01,-0.03,0.01
7:22:34 PM,0.02,-9.19,-3.49,0.01,-0.03,0.01
7:22:34 PM,0.01,-9.23,-3.36,0.02,-0.02,0.01
7:22:34 PM,-0.02,-9.24,-3.34,0.02,-0.01,0.01
7:22:34 PM,0.02,-9.12,-3.48,0.00,-0.03,0.01
7:22:34 PM,0.01,-9.20,-3.43,0.01,-0.09,0.01
7:22:34 PM,-0.02,-9.16,-3.42,0.00,-0.04,0.01
7:22:35 PM,0.04,-9.24,-3.33,-0.01,-0.02,0.01
7:22:35 PM,-0.06,-9.22,-3.36,0.00,-0.06,0.01
7:22:35 PM,-0.06,-9.16,-3.42,0.00,-0.04,0.01
7:22:35 PM,0.10,-9.22,-3.30,0.04,0.05,0.01
7:22:35 PM,0.08,-9.25,-3.23,0.00,-0.04,0.01
7:22:35 PM,-0.15,-9.19,-3.23,0.01,-0.05,0.01
7:22:35 PM,0.04,-9.12,-3.67,0.02,-0.01,0.01
7:22:35 PM,0.16,-9.29,-3.51,0.02,-0.06,0.01
7:22:35 PM,0.06,-9.33,-3.40,-0.02,-0.11,0.01
7:22:36 PM,-0.18,-9.13,-3.59,0.04,-0.03,0.01
7:22:36 PM,-0.09,-9.22,-3.40,0.02,-0.03,0.01
7:22:36 PM,-0.13,-9.22,-3.35,-0.02,-0.04,0.01
7:22:36 PM,-0.13,-9.28,-3.28,0.01,-0.01,0.01
7:22:36 PM,-0.13,-9.28,-3.16,0.00,-0.03,0.01
7:22:36 PM,0.17,-9.27,-3.29,-0.02,-0.05,0.01
7:22:36 PM,-0.13,-9.18,-3.30,0.02,-0.01,0.01
7:22:36 PM,-0.14,-9.22,-3.33,0.03,-0.02,0.01
7:22:36 PM,-0.12,-9.12,-3.48,0.07,0.05,0.01
7:22:36 PM,-0.07,-9.27,-3.37,0.01,0.03,0.01
7:22:37 PM,-0.08,-9.26,-3.11,0.03,0.04,0.01
7:22:37 PM,0.00,-9.23,-3.33,0.04,0.02,0.01
7:22:37 PM,0.07,-9.15,-3.28,0.02,-0.05,0.01
7:22:37 PM,0.00,-9.11,-3.41,0.00,-0.07,0.01
7:22:37 PM,-0.17,-9.28,-3.04,0.02,0.06,0.01
7:22:37 PM,0.33,-9.25,-3.38,0.03,-0.03,0.01
7:22:37 PM,0.06,-9.05,-3.48,0.02,-0.01,0.01
7:22:37 PM,-0.02,-9.23,-3.15,0.01,-0.07,0.01
7:22:37 PM,0.03,-9.18,-3.17,-0.01,-0.05,0.01
7:22:38 PM,-0.04,-9.22,-3.31,0.01,-0.02,0.01
7:22:38 PM,0.14,-9.28,-3.34,0.03,0.03,0.01
7:22:38 PM,0.05,-9.20,-3.35,0.03,0.02,0.01
7:22:38 PM,-0.15,-9.23,-3.05,-0.01,-0.07,0.01
7:22:38 PM,0.01,-9.17,-3.13,-0.01,-0.04,0.01
7:22:38 PM,0.28,-9.14,-3.31,0.01,-0.06,0.01
7:22:38 PM,0.07,-9.23,-3.17,0.01,-0.08,0.01
7:22:38 PM,0.08,-9.24,-3.19,0.01,-0.01,0.01
7:22:38 PM,0.18,-9.23,-3.15,-0.00,-0.04,0.01
7:22:38 PM,0.18,-9.21,-3.21,0.03,-0.02,0.01
7:22:39 PM,0.04,-9.22,-3.23,0.03,0.05,0.01
7:22:39 PM,0.22,-9.18,-3.15,-0.00,-0.06,0.01
7:22:39 PM,-0.01,-9.19,-3.16,0.01,-0.04,0.01
7:22:39 PM,0.10,-9.30,-3.33,0.00,-0.01,0.01
7:22:39 PM,0.23,-9.29,-3.17,0.02,-0.06,0.01
7:22:39 PM,0.02,-9.27,-3.16,0.04,0.03,0.01
7:22:39 PM,-0.03,-9.22,-3.19,0.00,-0.05,0.01
7:22:39 PM,0.01,-9.30,-3.05,-0.01,-0.02,0.01
7:22:39 PM,0.05,-9.17,-3.18,0.01,-0.02,0.01
7:22:40 PM,0.03,-9.19,-3.24,0.00,-0.04,0.01
7:22:40 PM,0.05,-9.24,-3.12,-0.00,-0.08,0.01
7:22:40 PM,0.13,-9.28,-3.08,-0.00,-0.04,0.01
7:22:40 PM,0.31,-9.28,-3.19,0.06,0.07,0.01
7:22:40 PM,0.22,-9.29,-3.17,0.02,0.01,0.01
7:22:40 PM,0.00,-9.18,-3.23,0.00,-0.00,0.01
7:22:40 PM,-0.01,-9.26,-3.19,0.01,-0.03,0.01
7:22:40 PM,0.15,-9.20,-3.36,0.03,0.03,0.01
7:22:40 PM,0.20,-9.18,-3.38,-0.00,-0.01,0.01
7:22:40 PM,0.07,-9.28,-3.16,-0.01,-0.11,0.01
7:22:41 PM,0.13,-9.26,-3.16,0.01,-0.05,0.01
7:22:41 PM,-0.00,-9.05,-3.51,0.06,0.01,0.01
7:22:41 PM,0.25,-9.24,-3.02,0.05,-0.01,0.01
7:22:41 PM,0.15,-9.22,-3.11,-0.01,-0.05,0.01
7:22:41 PM,0.19,-9.21,-3.12,0.04,-0.01,0.01
7:22:41 PM,0.15,-9.15,-3.01,-0.01,0.01,0.01
7:22:41 PM,-0.11,-9.23,-3.24,-0.03,-0.10,0.01
7:22:41 PM,0.22,-9.11,-3.18,0.01,-0.02,0.01
7:22:41 PM,0.27,-9.25,-3.19,-0.03,-0.06,0.01
7:22:42 PM,0.11,-9.24,-3.14,-0.00,-0.00,0.01
7:22:42 PM,0.02,-9.19,-3.24,0.01,-0.03,0.01
7:22:42 PM,0.08,-9.18,-3.27,0.00,0.00,0.01
7:22:42 PM,0.25,-9.18,-3.37,0.00,0.11,0.01
7:22:42 PM,-0.02,-9.23,-3.28,-0.02,-0.02,0.01
7:22:42 PM,-0.06,-9.23,-3.23,0.05,-0.00,0.01
7:22:42 PM,0.05,-9.27,-3.27,-0.01,-0.01,0.01
7:22:42 PM,-0.20,-9.26,-3.25,0.01,-0.02,0.01
7:22:42 PM,0.00,-9.19,-3.26,0.04,-0.01,0.01
7:22:42 PM,0.09,-9.29,-3.14,0.03,-0.07,0.01
7:22:43 PM,0.03,-9.25,-3.30,0.01,-0.02,0.01
7:22:43 PM,-0.25,-9.28,-3.30,0.02,-0.02,0.01
7:22:43 PM,0.23,-9.27,-3.41,0.04,0.04,0.01
7:22:43 PM,-0.01,-9.28,-3.01,0.03,-0.04,0.01
7:22:43 PM,0.33,-9.15,-3.44,0.04,0.04,0.01
7:22:43 PM,-0.04,-9.29,-3.22,-0.00,-0.04,0.01
7:22:43 PM,0.43,-9.26,-3.04,-0.00,-0.02,0.01
7:22:43 PM,-0.31,-9.18,-3.22,0.01,-0.03,0.01
7:22:43 PM,0.11,-9.23,-3.38,0.04,0.05,0.01
7:22:44 PM,-0.07,-9.23,-3.28,0.03,0.05,0.01
7:22:44 PM,0.13,-9.31,-3.32,0.00,0.02,0.01
7:22:44 PM,-0.01,-9.15,-3.18,0.02,-0.02,0.01
7:22:44 PM,0.06,-9.24,-3.30,0.00,0.03,0.01
7:22:44 PM,0.22,-9.31,-3.21,-0.00,-0.04,0.01
7:22:44 PM,0.01,-9.26,-3.22,-0.02,-0.05,0.01
7:22:44 PM,0.02,-9.21,-3.26,0.02,0.01,0.01
7:22:44 PM,-0.02,-9.09,-3.60,0.03,-0.00,0.01
7:22:44 PM,0.02,-9.24,-3.27,0.01,0.04,0.01
7:22:44 PM,-0.04,-9.13,-3.26,0.04,0.03,0.01
7:22:45 PM,0.01,-9.21,-3.24,0.00,0.00,0.01
7:22:45 PM,-0.23,-9.11,-3.47,0.09,0.09,0.01
7:22:45 PM,0.23,-9.28,-3.31,0.03,0.01,0.01
7:22:45 PM,0.20,-9.26,-3.46,-0.03,-0.06,0.01
7:22:45 PM,0.07,-9.31,-3.12,-0.07,-0.06,0.01
7:22:45 PM,-0.03,-9.08,-3.64,-0.01,0.12,0.01
7:22:45 PM,0.16,-9.16,-3.62,0.03,0.09,0.01
7:22:45 PM,0.14,-9.21,-3.31,0.02,-0.01,0.01
7:22:45 PM,-0.03,-9.26,-3.44,-0.05,-0.14,0.01
7:22:46 PM,-0.21,-9.33,-3.39,0.02,0.00,0.01
7:22:46 PM,0.05,-9.12,-3.48,0.02,0.06,0.01
7:22:46 PM,-0.18,-9.21,-3.35,0.02,-0.01,0.01
7:22:46 PM,-0.21,-9.10,-3.34,0.02,-0.02,0.01
7:22:46 PM,-0.06,-9.22,-3.42,0.01,0.00,0.01
7:22:46 PM,-0.12,-9.20,-3.41,-0.02,-0.05,0.01
7:22:46 PM,-0.07,-9.16,-3.42,0.02,0.03,0.01
7:22:46 PM,-0.09,-9.09,-3.48,-0.01,-0.05,0.01
7:22:46 PM,-0.18,-9.22,-3.33,-0.01,0.01,0.01
7:22:46 PM,-0.08,-9.13,-3.22,0.02,0.01,0.01
7:22:47 PM,0.08,-9.18,-3.49,0.04,0.01,0.01
7:22:47 PM,0.01,-9.13,-3.28,0.06,0.03,0.01
7:22:47 PM,0.10,-9.25,-3.15,-0.02,-0.07,0.01
7:22:47 PM,-0.09,-9.17,-3.53,-0.03,-0.05,0.01
7:22:47 PM,0.00,-9.23,-3.36,0.00,-0.05,0.01
7:22:47 PM,0.08,-9.17,-3.34,0.02,-0.01,0.01
7:22:47 PM,-0.03,-9.13,-3.47,0.01,0.02,0.01
7:22:47 PM,-0.06,-9.23,-3.21,0.05,0.02,0.01
7:22:47 PM,0.04,-9.18,-3.41,0.01,-0.07,0.01
7:22:48 PM,-0.24,-9.12,-3.41,0.03,0.01,0.01
7:22:48 PM,-0.01,-9.24,-3.31,-0.02,-0.07,0.01
7:22:48 PM,0.01,-9.32,-3.40,-0.04,-0.02,0.01
7:22:48 PM,-0.13,-9.22,-3.52,0.06,0.10,0.01
7:22:48 PM,-0.07,-9.19,-3.48,0.01,0.01,0.01
7:22:48 PM,0.10,-9.18,-3.41,-0.00,0.01,0.01
7:22:48 PM,-0.16,-9.15,-3.44,0.01,-0.04,0.01
7:22:48 PM,-0.13,-9.12,-3.56,0.02,0.04,0.01
7:22:48 PM,-0.12,-9.22,-3.46,0.01,-0.10,0.01
7:22:49 PM,0.13,-9.21,-3.53,0.03,-0.01,0.01
7:22:49 PM,-0.17,-9.22,-3.35,-0.02,-0.08,0.01
7:22:49 PM,0.06,-9.10,-3.49,-0.00,-0.02,0.01
7:22:49 PM,-0.01,-9.11,-3.58,-0.04,-0.08,0.01
7:22:49 PM,0.09,-9.21,-3.63,0.00,0.01,0.01
7:22:49 PM,0.03,-9.17,-3.60,0.01,0.01,0.01
7:22:49 PM,-0.11,-9.19,-3.57,0.01,0.01,0.01
7:22:49 PM,-0.09,-9.20,-3.60,0.06,0.04,0.01
7:22:49 PM,0.05,-9.13,-3.51,0.04,0.00,0.01
7:22:49 PM,-0.10,-9.23,-3.48,-0.01,-0.03,0.01
7:22:50 PM,-0.07,-9.21,-3.38,-0.02,-0.09,0.01
7:22:50 PM,0.01,-9.15,-3.42,-0.01,-0.08,0.01
7:22:50 PM,0.04,-9.21,-3.47,0.02,0.01,0.01
7:22:50 PM,-0.00,-9.22,-3.39,0.02,-0.05,0.01
7:22:50 PM,-0.03,-9.20,-3.39,0.01,0.00,0.01
7:22:50 PM,-0.03,-9.06,-3.46,0.05,0.02,0.01
7:22:50 PM,-0.07,-9.18,-3.47,-0.00,0.01,0.01
7:22:50 PM,-0.08,-9.16,-3.59,0.04,0.01,0.01
7:22:50 PM,0.05,-9.23,-3.53,0.00,0.00,0.01
7:22:51 PM,0.04,-9.19,-3.33,-0.01,-0.05,0.01
7:22:51 PM,-0.12,-9.18,-3.34,0.02,-0.01,0.01
7:22:51 PM,0.03,-9.19,-3.44,-0.01,-0.04,0.01
7:22:51 PM,-0.09,-9.17,-3.60,0.01,0.06,0.01
7:22:51 PM,0.01,-9.18,-3.48,-0.00,-0.02,0.01
7:22:51 PM,-0.11,-9.26,-3.40,0.01,-0.05,0.01
7:22:51 PM,-0.06,-9.15,-3.59,-0.02,-0.05,0.01
7:22:51 PM,-0.23,-9.21,-3.41,-0.01,-0.04,0.01
7:22:51 PM,0.05,-9.10,-3.58,0.02,-0.03,0.01
7:22:51 PM,0.06,-9.18,-3.52,-0.01,-0.05,0.01
7:22:52 PM,0.09,-9.25,-3.61,0.01,0.04,0.01
7:22:52 PM,-0.04,-9.16,-3.42,0.04,0.00,0.01
7:22:52 PM,-0.12,-9.16,-3.39,-0.00,-0.07,0.01
7:22:52 PM,0.06,-9.18,-3.32,-0.04,-0.12,0.01
7:22:52 PM,-0.05,-9.12,-3.55,-0.03,-0.11,0.01
7:22:52 PM,-0.10,-9.16,-3.40,-0.01,-0.08,0.01
7:22:52 PM,0.00,-9.18,-3.44,-0.05,-0.09,0.01
7:22:52 PM,-0.02,-9.22,-3.63,-0.03,-0.06,0.01
7:22:52 PM,-0.01,-9.27,-3.47,-0.01,-0.03,0.01
7:22:53 PM,-0.02,-9.17,-3.41,-0.03,-0.09,0.01
7:22:53 PM,-0.30,-9.15,-3.68,-0.17,-0.19,0.01
7:22:53 PM,-0.24,-9.30,-3.76,-0.03,0.03,0.01
7:22:53 PM,-0.16,-9.17,-3.58,0.05,0.01,0.01
7:22:53 PM,-0.09,-9.21,-3.65,-0.02,-0.05,0.01
7:22:53 PM,-0.29,-9.13,-3.83,0.03,0.02,0.01
7:22:53 PM,-0.08,-9.10,-3.64,0.05,0.07,0.01
7:22:53 PM,-0.10,-9.12,-3.80,0.04,0.08,0.01
7:22:53 PM,0.11,-9.17,-3.67,0.02,-0.02,0.01
7:22:53 PM,-0.01,-9.13,-3.56,0.05,-0.03,0.01
7:22:54 PM,0.19,-9.21,-3.57,-0.01,-0.03,0.01
7:22:54 PM,-0.15,-9.16,-3.59,-0.01,-0.02,0.01
7:22:54 PM,-0.13,-9.17,-3.71,0.05,0.02,0.01
7:22:54 PM,-0.15,-9.08,-3.67,0.05,-0.01,0.01
7:22:54 PM,0.20,-9.12,-3.60,-0.04,-0.06,0.01
7:22:54 PM,0.13,-9.10,-3.64,-0.03,-0.05,0.01
7:22:54 PM,-0.06,-9.09,-3.71,0.03,0.02,0.01
7:22:54 PM,0.14,-9.10,-3.62,-0.01,-0.06,0.01
7:22:54 PM,-0.08,-9.16,-3.56,0.01,0.05,0.01
7:22:55 PM,0.07,-9.19,-3.63,0.02,-0.01,0.01
7:22:55 PM,0.23,-9.22,-3.45,0.03,-0.03,0.01
7:22:55 PM,0.15,-9.22,-3.37,0.00,-0.04,0.01
7:22:55 PM,0.21,-9.16,-3.49,-0.01,-0.07,0.01
7:22:55 PM,0.01,-9.20,-3.39,0.02,-0.02,0.01
7:22:55 PM,0.13,-9.14,-3.46,-0.01,-0.07,0.01
7:22:55 PM,0.14,-9.15,-3.43,0.04,-0.06,0.01
7:22:55 PM,0.16,-9.14,-3.44,-0.02,-0.12,0.01
7:22:55 PM,0.20,-9.12,-3.43,0.14,0.05,0.01
7:22:55 PM,0.11,-9.01,-3.66,0.07,-0.00,0.01
7:22:56 PM,0.18,-9.22,-3.42,0.02,-0.02,0.01
7:22:56 PM,0.01,-9.02,-3.50,0.05,-0.01,0.01
7:22:56 PM,0.03,-9.17,-3.48,0.07,0.07,0.01
7:22:56 PM,0.13,-9.15,-3.47,0.02,0.00,0.01
7:22:56 PM,0.01,-9.30,-3.17,0.03,0.03,0.01
7:22:56 PM,-0.02,-9.34,-3.01,0.03,0.05,0.01
7:22:56 PM,0.09,-9.20,-3.16,0.01,-0.03,0.01
7:22:56 PM,0.14,-9.23,-3.23,0.01,-0.04,0.01
7:22:56 PM,0.21,-9.16,-3.18,0.02,-0.02,0.01
7:22:57 PM,0.28,-9.17,-3.31,0.01,-0.07,0.01
7:22:57 PM,0.08,-9.11,-3.37,-0.03,-0.05,0.01
7:22:57 PM,0.02,-9.30,-3.23,-0.02,-0.05,0.01
7:22:57 PM,0.07,-9.18,-3.32,0.00,0.00,0.01
7:22:57 PM,0.17,-9.21,-3.40,0.04,0.07,0.01
7:22:57 PM,0.12,-9.03,-3.54,0.03,0.01,0.01
7:22:57 PM,0.08,-9.17,-3.25,0.05,0.05,0.01
7:22:57 PM,0.07,-9.27,-3.13,0.04,-0.01,0.01
7:22:57 PM,0.27,-9.42,-3.22,0.22,0.13,0.01
7:22:57 PM,0.16,-9.19,-3.03,0.05,0.02,0.01
7:22:58 PM,-0.03,-9.23,-3.17,-0.02,-0.08,0.01
7:22:58 PM,-0.07,-9.17,-3.22,-0.01,-0.10,0.01
7:22:58 PM,0.17,-9.28,-3.14,-0.01,-0.06,0.01
7:22:58 PM,-0.15,-9.33,-3.15,0.03,-0.00,0.01
7:22:58 PM,0.14,-9.26,-3.12,0.06,0.02,0.01
7:22:58 PM,-0.01,-9.23,-3.17,0.01,0.03,0.01
7:22:58 PM,0.21,-9.38,-3.11,0.02,-0.02,0.01
7:22:58 PM,-0.05,-9.33,-3.15,0.02,-0.01,0.01
7:22:58 PM,0.09,-9.33,-2.94,-0.00,-0.06,0.01
7:22:59 PM,-0.01,-9.28,-3.03,0.00,-0.04,0.01
7:22:59 PM,0.15,-9.25,-2.98,0.00,-0.06,0.01
7:22:59 PM,-0.05,-9.25,-3.17,0.02,0.03,0.01
7:22:59 PM,0.07,-9.32,-3.01,-0.03,-0.05,0.01
7:22:59 PM,0.10,-9.27,-3.03,0.01,-0.00,0.01
7:22:59 PM,0.17,-9.20,-3.13,0.03,0.03,0.01
7:22:59 PM,0.45,-9.09,-3.28,0.03,-0.04,0.01
7:22:59 PM,0.11,-9.33,-3.05,-0.01,-0.03,0.01
7:22:59 PM,0.22,-9.31,-3.03,-0.05,-0.08,0.01
7:23:00 PM,0.10,-9.21,-2.98,0.00,-0.07,0.01
7:23:00 PM,-0.08,-9.19,-3.11,0.02,-0.06,0.01
7:23:00 PM,0.16,-9.28,-3.08,-0.01,-0.05,0.01
7:23:00 PM,0.12,-9.28,-3.09,0.03,-0.00,0.01
7:23:00 PM,0.20,-9.35,-3.00,0.00,0.04,0.01
7:23:00 PM,0.03,-9.38,-2.85,0.02,0.05,0.01
7:23:00 PM,0.22,-9.25,-3.11,0.01,0.08,0.01
7:23:00 PM,-0.01,-9.45,-2.91,0.01,-0.03,0.01
7:23:00 PM,0.30,-9.20,-3.13,0.01,0.01,0.01
7:23:00 PM,0.11,-9.17,-3.15,0.03,0.04,0.01
7:23:01 PM,0.17,-9.23,-3.07,0.01,-0.02,0.01
7:23:01 PM,-0.01,-9.18,-3.17,0.00,0.01,0.01
7:23:01 PM,0.28,-9.09,-3.19,0.11,0.12,0.01
7:23:01 PM,0.28,-9.24,-3.01,0.02,0.03,0.01
7:23:01 PM,0.01,-9.24,-3.10,-0.01,-0.03,0.01
7:23:01 PM,-0.05,-9.32,-3.12,0.01,-0.04,0.01
7:23:01 PM,0.18,-9.42,-3.02,0.05,0.04,0.01
7:23:01 PM,-0.00,-9.21,-3.18,-0.03,-0.05,0.01
7:23:01 PM,-0.03,-9.28,-3.07,0.02,-0.03,0.01
7:23:02 PM,-0.06,-9.12,-3.35,0.02,0.01,0.01
7:23:02 PM,0.02,-9.17,-3.20,0.05,0.04,0.01
7:23:02 PM,0.02,-9.04,-3.18,0.03,-0.01,0.01
7:23:02 PM,0.00,-9.19,-2.98,0.02,-0.01,0.01
7:23:02 PM,-0.01,-9.32,-2.85,-0.02,-0.02,0.01
7:23:02 PM,0.05,-9.31,-3.09,0.01,0.03,0.01
7:23:02 PM,-0.04,-9.26,-3.05,-0.01,0.03,0.01
7:23:02 PM,0.05,-9.21,-3.20,-0.02,-0.07,0.01
7:23:02 PM,0.24,-9.14,-3.24,-0.01,-0.01,0.01
7:23:02 PM,-0.02,-9.33,-2.89,-0.03,-0.01,0.01
7:23:03 PM,0.18,-9.10,-3.13,-0.02,-0.08,0.01
7:23:03 PM,-0.15,-9.19,-3.29,0.07,0.15,0.01
7:23:03 PM,0.01,-9.32,-2.83,-0.01,-0.04,0.01
7:23:03 PM,0.06,-9.24,-3.08,-0.07,-0.06,0.01
7:23:03 PM,0.18,-9.07,-3.65,0.04,0.03,0.01
7:23:03 PM,0.10,-9.34,-3.15,0.08,-0.01,0.01
7:23:03 PM,0.00,-9.23,-3.04,-0.00,-0.06,0.01
7:23:03 PM,-0.13,-9.26,-3.09,0.01,0.07,0.01
7:23:03 PM,0.31,-9.16,-3.11,-0.00,0.00,0.01
7:23:04 PM,0.15,-9.13,-3.17,0.02,-0.04,0.01
7:23:04 PM,0.05,-9.27,-3.07,0.02,-0.03,0.01
7:23:04 PM,0.04,-9.28,-3.06,0.03,-0.01,0.01
7:23:04 PM,0.05,-9.14,-3.19,0.00,-0.03,0.01
7:23:04 PM,-0.01,-9.22,-3.29,0.01,0.03,0.01
7:23:04 PM,0.08,-9.27,-2.86,-0.00,-0.03,0.01
