Timestamp,Accel X,Accel Y,Accel Z,Gyro X,Gyro Y,Gyro Z
7:06:10 PM,-0.75,-0.86,8.66,0.01,0.01,0.01
7:06:11 PM,-0.78,-0.87,8.63,0.02,0.03,0.01
7:06:11 PM,-0.83,-0.86,8.59,0.01,0.03,0.01
7:06:11 PM,-0.87,-0.81,8.64,0.01,-0.08,0.01
7:06:11 PM,-0.68,-0.87,8.66,0.02,-0.02,0.01
7:06:11 PM,-0.53,-0.91,8.71,0.01,-0.01,0.01
7:06:11 PM,-0.72,-0.85,8.59,0.01,0.01,0.01
7:06:11 PM,-0.71,-0.85,8.60,-0.01,-0.09,0.01
7:06:11 PM,-0.73,-0.85,8.61,0.00,-0.07,0.01
7:06:11 PM,-0.44,-0.96,8.71,0.02,0.05,0.01
7:06:12 PM,-0.47,-0.92,8.71,0.02,0.00,0.01
7:06:12 PM,-0.65,-0.84,8.65,0.00,-0.02,0.01
7:06:12 PM,-0.74,-0.88,8.65,0.00,0.01,0.01
7:06:12 PM,-0.81,-0.84,8.60,0.00,-0.04,0.01
7:06:12 PM,-0.71,-0.83,8.67,0.03,-0.02,0.01
7:06:12 PM,-0.60,-0.90,8.65,0.03,-0.01,0.01
7:06:12 PM,-0.59,-0.86,8.66,0.00,-0.02,0.01
7:06:12 PM,-0.76,-0.84,8.69,-0.00,-0.00,0.01
7:06:12 PM,-0.86,-0.79,8.64,0.02,0.02,0.01
7:06:12 PM,-0.68,-0.88,8.64,0.01,-0.05,0.01
7:06:13 PM,-0.62,-0.88,8.62,0.02,-0.02,0.01
7:06:13 PM,-0.57,-0.91,8.66,0.00,-0.02,0.01
7:06:13 PM,-0.38,-0.91,8.68,0.02,0.01,0.01
7:06:13 PM,-0.63,-0.87,8.68,0.01,-0.05,0.01
7:06:13 PM,-0.75,-0.88,8.60,0.02,-0.01,0.01
7:06:13 PM,-0.64,-0.89,8.68,0.02,0.01,0.01
7:06:13 PM,-0.56,-0.89,8.71,0.01,-0.02,0.01
7:06:13 PM,-0.65,-0.83,8.63,0.03,-0.03,0.01
7:06:13 PM,-0.64,-0.85,8.65,0.01,0.00,0.01
7:06:14 PM,-0.68,-0.86,8.65,0.00,-0.05,0.01
7:06:14 PM,-0.83,-0.79,8.62,0.01,-0.01,0.01
7:06:14 PM,-0.58,-0.91,8.68,0.03,0.05,0.01
7:06:14 PM,-0.79,-0.82,8.66,0.05,0.12,0.01
7:06:14 PM,-0.95,-0.79,8.66,0.02,0.02,0.01
7:06:14 PM,-0.96,-0.80,8.63,0.00,-0.05,0.01
7:06:14 PM,-0.78,-0.83,8.67,-0.01,-0.06,0.01
7:06:14 PM,-0.80,-0.84,8.61,0.01,-0.02,0.01
7:06:14 PM,-0.67,-0.87,8.65,0.01,-0.02,0.01
7:06:14 PM,-0.84,-0.77,8.68,0.01,-0.03,0.01
7:06:15 PM,-1.05,-0.62,8.68,0.09,0.18,0.01
7:06:15 PM,-0.92,-0.81,8.63,0.00,0.05,0.01
7:06:15 PM,-0.57,-0.78,8.73,0.03,0.03,0.01
7:06:15 PM,-0.53,-0.80,8.67,0.00,-0.03,0.01
7:06:15 PM,-0.67,-0.87,8.66,0.00,0.00,0.01
7:06:15 PM,-0.70,-0.92,8.60,0.03,-0.01,0.01
7:06:15 PM,-0.72,-0.88,8.65,0.02,0.03,0.01
7:06:15 PM,-0.88,-0.87,8.65,0.04,0.05,0.01
7:06:15 PM,-0.75,-0.80,8.65,0.01,0.00,0.01
7:06:16 PM,-0.72,-0.83,8.64,0.02,0.01,0.01
7:06:16 PM,-0.81,-0.85,8.70,0.01,-0.03,0.01
7:06:16 PM,-0.92,-0.86,8.61,0.03,0.02,0.01
7:06:16 PM,-0.88,-0.87,8.65,0.01,-0.02,0.01
7:06:16 PM,-0.73,-0.83,8.66,0.00,-0.04,0.01
7:06:16 PM,-0.57,-0.79,8.56,-0.00,-0.03,0.01
7:06:16 PM,-0.67,-0.85,8.67,0.01,-0.02,0.01
7:06:16 PM,-0.59,-0.83,8.66,0.01,-0.03,0.01
7:06:16 PM,-0.65,-0.84,8.61,0.01,-0.01,0.01
7:06:17 PM,-0.62,-0.91,8.66,0.00,-0.01,0.01
7:06:17 PM,-0.68,-0.88,8.68,0.02,0.02,0.01
7:06:17 PM,-0.79,-0.86,8.60,0.02,0.01,0.01
7:06:17 PM,-0.76,-0.88,8.67,0.00,-0.02,0.01
7:06:17 PM,-1.09,-0.82,8.61,0.01,-0.03,0.01
7:06:17 PM,-1.13,-0.82,8.54,0.00,-0.08,0.01
7:06:17 PM,-1.02,-0.87,8.57,-0.01,-0.09,0.01
7:06:17 PM,-0.95,-0.82,8.63,0.00,-0.05,0.01
7:06:17 PM,-0.83,-0.85,8.62,0.02,-0.03,0.01
7:06:17 PM,-0.50,-0.92,8.63,0.01,-0.01,0.01
7:06:18 PM,-0.87,-0.81,8.68,0.02,0.00,0.01
7:06:18 PM,-1.04,-0.74,8.65,0.03,0.00,0.01
7:06:18 PM,-0.93,-0.73,8.66,0.01,0.04,0.01
7:06:18 PM,-1.29,-0.70,8.64,0.02,-0.02,0.01
7:06:18 PM,-1.41,-0.71,8.58,0.01,-0.08,0.01
7:06:18 PM,-1.24,-0.71,8.61,0.01,0.07,0.01
7:06:18 PM,-0.80,-0.77,8.67,0.03,0.09,0.01
7:06:18 PM,-0.50,-0.82,8.66,0.02,0.01,0.01
7:06:18 PM,-1.01,-0.80,8.68,0.04,0.08,0.01
7:06:19 PM,-1.04,-0.76,8.63,0.04,0.09,0.01
7:06:19 PM,-1.03,-0.81,8.63,0.02,0.06,0.01
7:06:19 PM,-0.90,-0.81,8.68,-0.00,-0.00,0.01
7:06:19 PM,-0.77,-0.85,8.58,0.01,-0.00,0.01
7:06:19 PM,-0.69,-0.83,8.66,0.00,-0.03,0.01
7:06:19 PM,-0.66,-0.86,8.61,-0.02,-0.07,0.01
7:06:19 PM,-0.48,-0.91,8.63,-0.00,-0.04,0.01
7:06:19 PM,-0.68,-0.88,8.64,-0.00,-0.04,0.01
7:06:19 PM,-0.64,-0.90,8.67,0.03,0.01,0.01
7:06:19 PM,-0.64,-0.88,8.60,0.02,0.03,0.01
7:06:20 PM,-0.93,-0.80,8.64,0.02,-0.06,0.01
7:06:20 PM,-0.94,-0.84,8.60,0.00,-0.06,0.01
7:06:20 PM,-0.88,-0.78,8.61,-0.01,0.01,0.01
7:06:20 PM,-0.80,-0.76,8.64,0.02,0.01,0.01
7:06:20 PM,-0.82,-0.78,8.63,0.00,-0.04,0.01
7:06:20 PM,-1.00,-0.79,8.65,0.01,-0.03,0.01
7:06:20 PM,-0.89,-0.82,8.59,0.01,-0.03,0.01
7:06:20 PM,-1.04,-0.76,8.62,0.03,0.07,0.01
7:06:20 PM,-0.74,-0.83,8.65,0.04,0.10,0.01
7:06:21 PM,-0.67,-0.80,8.69,0.05,0.13,0.01
7:06:21 PM,-0.79,-0.74,8.67,0.03,0.03,0.01
7:06:21 PM,-0.68,-0.81,8.65,0.01,-0.02,0.01
7:06:21 PM,-0.79,-0.84,8.64,-0.01,-0.10,0.01
7:06:21 PM,-0.49,-0.85,8.62,-0.01,-0.07,0.01
7:06:21 PM,-0.50,-0.91,8.69,0.02,0.03,0.01
7:06:21 PM,-0.59,-0.85,8.61,0.02,0.01,0.01
7:06:21 PM,-0.88,-0.75,8.64,0.02,0.01,0.01
7:06:21 PM,-0.84,-0.80,8.63,0.01,-0.05,0.01
7:06:21 PM,-0.91,-0.77,8.68,0.01,-0.03,0.01
7:06:22 PM,-1.03,-0.76,8.62,0.01,-0.04,0.01
7:06:22 PM,-0.87,-0.78,8.53,-0.00,-0.05,0.01
7:06:22 PM,-0.63,-0.59,8.83,0.06,0.02,0.01
7:06:22 PM,-0.70,-0.78,8.60,0.01,-0.10,0.01
7:06:22 PM,-0.67,-0.81,8.65,-0.01,-0.06,0.01
7:06:22 PM,-0.81,-0.81,8.59,-0.02,-0.03,0.01
7:06:22 PM,-0.80,-0.80,8.68,-0.01,-0.10,0.01
7:06:22 PM,-0.82,-0.79,8.61,0.00,-0.05,0.01
7:06:22 PM,-0.81,-0.79,8.63,-0.01,-0.07,0.01
7:06:23 PM,-0.96,-0.75,8.62,-0.01,-0.09,0.01
7:06:23 PM,-0.86,-0.76,8.65,-0.01,-0.07,0.01
7:06:23 PM,-0.87,-0.76,8.61,-0.00,-0.03,0.01
7:06:23 PM,-0.72,-0.84,8.64,0.02,-0.09,0.01
7:06:23 PM,-0.76,-0.83,8.66,0.01,-0.08,0.01
7:06:23 PM,-0.81,-0.75,8.63,0.02,-0.00,0.01
7:06:23 PM,-0.83,-0.77,8.62,0.02,0.04,0.01
7:06:23 PM,-0.78,-0.79,8.63,0.03,0.01,0.01
7:06:23 PM,-0.60,-0.80,8.69,0.00,-0.02,0.01
7:06:23 PM,-0.65,-0.76,8.70,0.02,-0.02,0.01
7:06:24 PM,-0.87,-0.77,8.63,-0.01,-0.04,0.01
7:06:24 PM,-0.73,-0.83,8.64,-0.00,-0.01,0.01
7:06:24 PM,-0.78,-0.82,8.63,0.00,-0.03,0.01
7:06:24 PM,-0.59,-0.84,8.62,-0.02,-0.05,0.01
7:06:24 PM,-0.44,-0.89,8.61,0.02,-0.06,0.01
7:06:24 PM,-0.40,-0.85,8.67,-0.01,-0.04,0.01
7:06:24 PM,-0.54,-0.82,8.64,-0.00,-0.05,0.01
7:06:24 PM,-1.01,-0.69,8.65,0.01,0.00,0.01
7:06:24 PM,-0.85,-0.73,8.64,0.02,-0.04,0.01
7:06:25 PM,-0.63,-0.74,8.64,0.01,0.01,0.01
7:06:25 PM,-0.57,-0.75,8.64,0.01,-0.00,0.01
7:06:25 PM,-0.53,-0.71,8.68,-0.01,-0.08,0.01
7:06:25 PM,-0.88,-0.71,8.59,-0.00,-0.02,0.01
7:06:25 PM,-0.65,-0.73,8.66,0.06,0.04,0.01
7:06:25 PM,-0.39,-0.76,8.68,0.04,0.07,0.01
7:06:25 PM,-0.39,-0.73,8.67,0.01,0.01,0.01
7:06:25 PM,-0.39,-0.76,8.65,-0.00,-0.03,0.01
7:06:25 PM,-0.50,-0.78,8.64,-0.00,-0.05,0.01
7:06:25 PM,-0.69,-0.70,8.65,0.03,0.04,0.01
7:06:26 PM,-0.77,-0.72,8.65,0.03,0.04,0.01
7:06:26 PM,-0.55,-0.72,8.68,0.02,0.01,0.01
7:06:26 PM,-0.75,-0.68,8.64,-0.00,-0.08,0.01
7:06:26 PM,-0.60,-0.71,8.66,-0.03,-0.11,0.01
7:06:26 PM,-0.64,-0.68,8.65,0.02,0.02,0.01
7:06:26 PM,-0.35,-0.74,8.63,0.03,-0.03,0.01
7:06:26 PM,-0.45,-0.77,8.67,-0.01,-0.05,0.01
7:06:26 PM,-0.85,-0.67,8.67,0.03,0.01,0.01
7:06:26 PM,-0.87,-0.72,8.66,0.01,-0.06,0.01
7:06:27 PM,-0.84,-0.70,8.62,-0.00,-0.04,0.01
7:06:27 PM,-0.66,-0.68,8.72,0.02,-0.03,0.01
7:06:27 PM,-0.60,-0.72,8.66,0.00,0.00,0.01
7:06:27 PM,-0.58,-0.73,8.66,-0.01,-0.05,0.01
7:06:27 PM,-0.61,-0.73,8.71,0.00,-0.08,0.01
7:06:27 PM,-0.93,-0.72,8.68,0.02,0.02,0.01
7:06:27 PM,-0.77,-0.69,8.70,0.01,-0.03,0.01
7:06:27 PM,-0.68,-0.68,8.66,0.01,-0.01,0.01
7:06:27 PM,-0.60,-0.68,8.65,0.00,-0.01,0.01
7:06:27 PM,-0.83,-0.68,8.61,-0.01,-0.07,0.01
7:06:28 PM,-0.97,-0.69,8.59,0.01,0.02,0.01
7:06:28 PM,-0.96,-0.64,8.66,0.02,0.04,0.01
7:06:28 PM,-0.79,-0.67,8.63,0.01,0.00,0.01
7:06:28 PM,-0.63,-0.74,8.67,-0.01,-0.09,0.01
7:06:28 PM,-0.57,-0.77,8.68,0.01,-0.01,0.01
7:06:28 PM,-0.53,-0.78,8.65,0.00,-0.04,0.01
7:06:28 PM,-0.68,-0.79,8.72,0.01,-0.06,0.01
7:06:28 PM,-0.80,-0.71,8.66,-0.00,-0.02,0.01
7:06:28 PM,-0.86,-0.64,8.64,0.01,0.03,0.01
7:06:29 PM,-0.59,-0.71,8.69,0.02,0.04,0.01
7:06:29 PM,-0.32,-0.75,8.66,0.01,0.00,0.01
7:06:29 PM,-0.60,-0.84,8.57,-0.01,-0.08,0.01
7:06:29 PM,-0.96,-0.75,8.54,-0.00,-0.02,0.01
7:06:29 PM,-0.81,-0.73,8.64,0.02,0.05,0.01
7:06:29 PM,-0.75,-0.69,8.66,0.01,0.01,0.01
7:06:29 PM,-0.51,-0.78,8.66,0.00,-0.03,0.01
7:06:29 PM,-0.62,-0.76,8.65,0.01,-0.00,0.01
7:06:29 PM,-0.65,-0.81,8.66,0.00,-0.01,0.01
7:06:30 PM,-0.75,-0.72,8.67,0.01,-0.01,0.01
7:06:30 PM,-0.89,-0.71,8.66,0.01,0.01,0.01
7:06:30 PM,-0.80,-0.70,8.57,0.01,-0.02,0.01
7:06:30 PM,-0.66,-0.72,8.63,0.00,-0.03,0.01
7:06:30 PM,-0.27,-0.76,8.72,-0.02,-0.02,0.01
7:06:30 PM,-0.14,-0.84,8.62,0.01,-0.04,0.01
7:06:30 PM,-0.40,-0.79,8.62,-0.06,-0.19,0.01
7:06:30 PM,-0.68,-0.79,8.69,-0.03,-0.15,0.01
7:06:30 PM,-0.69,-0.79,8.66,0.02,-0.02,0.01
7:06:30 PM,-0.86,-0.71,8.66,0.00,0.00,0.01
7:06:31 PM,-0.86,-0.65,8.62,-0.02,-0.08,0.01
7:06:31 PM,-0.47,-0.79,8.67,-0.01,-0.09,0.01
7:06:31 PM,-0.69,-0.76,8.63,-0.01,-0.07,0.01
7:06:31 PM,-0.60,-0.72,8.66,0.03,0.05,0.01
7:06:31 PM,-0.57,-0.79,8.65,0.04,0.07,0.01
7:06:31 PM,-0.77,-0.75,8.61,-0.02,-0.01,0.01
7:06:31 PM,-0.83,-0.72,8.67,0.02,0.01,0.01
7:06:31 PM,-0.74,-0.73,8.68,0.05,0.04,0.01
7:06:31 PM,-0.57,-0.73,8.66,0.02,-0.01,0.01
7:06:32 PM,-0.58,-0.72,8.69,-0.01,-0.05,0.01
7:06:32 PM,-0.36,-0.73,8.66,0.00,-0.06,0.01
7:06:32 PM,-0.40,-0.80,8.65,0.01,-0.09,0.01
7:06:32 PM,-0.66,-0.77,8.69,-0.00,-0.07,0.01
7:06:32 PM,-0.68,-0.77,8.65,0.01,-0.02,0.01
7:06:32 PM,-0.54,-0.75,8.65,0.00,-0.02,0.01
7:06:32 PM,-0.53,-0.71,8.66,0.01,-0.08,0.01
7:06:32 PM,-0.67,-0.71,8.69,-0.02,-0.13,0.01
7:06:32 PM,-0.92,-0.72,8.60,0.01,-0.06,0.01
7:06:32 PM,-1.05,-0.66,8.66,0.00,0.05,0.01
7:06:33 PM,-0.79,-0.68,8.70,0.03,0.03,0.01
7:06:33 PM,-0.62,-0.70,8.60,0.04,-0.00,0.01
7:06:33 PM,-0.43,-0.79,8.66,-0.00,-0.06,0.01
7:06:33 PM,-0.68,-0.78,8.66,0.01,-0.03,0.01
7:06:33 PM,-0.68,-0.76,8.64,0.03,0.00,0.01
7:06:33 PM,-0.68,-0.74,8.63,0.01,0.01,0.01
7:06:33 PM,-0.75,-0.72,8.62,0.01,-0.03,0.01
7:06:33 PM,-0.69,-0.74,8.64,-0.00,-0.06,0.01
7:06:33 PM,-0.88,-0.75,8.63,0.01,-0.01,0.01
7:06:34 PM,-0.82,-0.75,8.65,0.01,-0.01,0.01
7:06:34 PM,-0.78,-0.68,8.66,0.00,-0.04,0.01
7:06:34 PM,-0.58,-0.78,8.64,0.00,-0.03,0.01
7:06:34 PM,-0.74,-0.77,8.65,0.01,-0.04,0.01
7:06:34 PM,-0.65,-0.78,8.63,0.02,0.00,0.01
7:06:34 PM,-0.84,-0.71,8.63,0.03,0.04,0.01
7:06:34 PM,-0.66,-0.75,8.64,0.00,-0.02,0.01
7:06:34 PM,-0.79,-0.74,8.63,0.02,-0.00,0.01
7:06:34 PM,-0.74,-0.74,8.61,0.03,0.00,0.01
7:06:34 PM,-0.82,-0.71,8.64,0.02,0.01,0.01
7:06:35 PM,-0.71,-0.67,8.68,0.01,-0.00,0.01
7:06:35 PM,-0.74,-0.65,8.64,-0.00,-0.03,0.01
7:06:35 PM,-0.65,-0.70,8.67,0.01,-0.04,0.01
7:06:35 PM,-0.69,-0.70,8.67,0.01,-0.02,0.01
7:06:35 PM,-0.77,-0.70,8.63,0.00,-0.03,0.01
7:06:35 PM,-0.62,-0.70,8.65,0.00,-0.02,0.01
7:06:35 PM,-0.59,-0.78,8.67,0.02,-0.01,0.01
7:06:35 PM,-0.80,-0.69,8.60,0.03,0.01,0.01
7:06:35 PM,-0.80,-0.67,8.69,0.02,-0.01,0.01
7:06:36 PM,-0.73,-0.67,8.68,0.02,0.02,0.01
7:06:36 PM,-0.66,-0.69,8.64,-0.00,-0.02,0.01
7:06:36 PM,-0.77,-0.70,8.67,0.01,-0.01,0.01
7:06:36 PM,-0.68,-0.66,8.66,0.02,-0.04,0.01
7:06:36 PM,-0.86,-0.71,8.62,0.01,-0.04,0.01
7:06:36 PM,-0.76,-0.73,8.65,0.01,-0.04,0.01
7:06:36 PM,-0.72,-0.71,8.65,0.02,0.03,0.01
7:06:36 PM,-0.68,-0.69,8.66,0.03,0.04,0.01
7:06:36 PM,-0.80,-0.73,8.72,0.00,-0.01,0.01
7:06:36 PM,-0.50,-0.74,8.68,-0.00,-0.08,0.01
7:06:37 PM,-0.63,-0.70,8.64,-0.01,-0.06,0.01
7:06:37 PM,-0.78,-0.71,8.63,0.01,-0.04,0.01
7:06:37 PM,-0.62,-0.72,8.66,0.00,-0.03,0.01
7:06:37 PM,-0.57,-0.68,8.66,0.01,-0.02,0.01
7:06:37 PM,-0.62,-0.69,8.67,0.02,-0.01,0.01
7:06:37 PM,-0.70,-0.73,8.68,0.00,-0.04,0.01
7:06:37 PM,-0.81,-0.67,8.66,0.01,-0.01,0.01
7:06:37 PM,-0.80,-0.66,8.62,0.00,0.00,0.01
7:06:37 PM,-0.72,-0.67,8.69,-0.00,-0.03,0.01
7:06:38 PM,-0.62,-0.68,8.66,-0.02,-0.08,0.01
7:06:38 PM,-0.54,-0.74,8.65,0.01,-0.02,0.01
7:06:38 PM,-0.68,-0.77,8.60,0.04,0.05,0.01
7:06:38 PM,-0.88,-0.70,8.66,0.00,0.00,0.01
7:06:38 PM,-0.60,-0.69,8.70,0.02,-0.01,0.01
7:06:38 PM,-0.63,-0.64,8.66,0.00,-0.05,0.01
7:06:38 PM,-0.48,-0.75,8.65,-0.00,-0.05,0.01
7:06:38 PM,-0.56,-0.68,8.69,-0.01,-0.08,0.01
7:06:38 PM,-0.76,-0.75,8.65,0.03,-0.03,0.01
7:06:38 PM,-0.69,-0.71,8.66,0.01,-0.01,0.01
7:06:39 PM,-0.73,-0.62,8.70,0.01,-0.01,0.01
7:06:39 PM,-0.76,-0.72,8.64,0.01,-0.03,0.01
7:06:39 PM,-0.62,-0.74,8.66,-0.03,-0.07,0.01
7:06:39 PM,-0.85,-0.69,8.66,0.04,0.06,0.01
7:06:39 PM,-0.47,-0.76,8.65,-0.01,-0.03,0.01
7:06:39 PM,-0.43,-0.76,8.66,-0.00,-0.03,0.01
7:06:39 PM,-0.58,-0.72,8.65,0.00,-0.06,0.01
7:06:39 PM,-0.74,-0.74,8.61,0.01,-0.06,0.01
7:06:39 PM,-0.66,-0.76,8.65,0.01,-0.01,0.01
7:06:40 PM,-0.65,-0.74,8.67,0.01,-0.00,0.01
7:06:40 PM,-0.49,-0.76,8.64,0.02,-0.03,0.01
7:06:40 PM,-0.60,-0.76,8.64,-0.00,-0.02,0.01
7:06:40 PM,-0.58,-0.73,8.65,-0.01,-0.03,0.01
7:06:40 PM,-0.62,-0.73,8.64,0.01,0.02,0.01
7:06:40 PM,-0.71,-0.73,8.64,-0.00,-0.02,0.01
7:06:40 PM,-0.65,-0.71,8.65,0.02,-0.02,0.01
7:06:40 PM,-0.62,-0.75,8.60,0.01,-0.02,0.01
7:06:40 PM,-0.60,-0.71,8.63,0.02,-0.01,0.01
7:06:41 PM,-0.74,-0.75,8.66,0.01,-0.04,0.01
7:06:41 PM,-0.73,-0.73,8.63,0.04,0.01,0.01
7:06:41 PM,-0.52,-0.76,8.69,0.01,0.02,0.01
7:06:41 PM,-0.60,-0.66,8.67,-0.01,-0.04,0.01
7:06:41 PM,-0.84,-0.64,8.63,-0.01,-0.04,0.01
7:06:41 PM,-0.75,-0.70,8.63,0.01,0.00,0.01
7:06:41 PM,-0.59,-0.72,8.66,0.00,-0.02,0.01
7:06:41 PM,-0.57,-0.74,8.61,0.02,-0.02,0.01
7:06:41 PM,-0.56,-0.75,8.62,0.00,-0.06,0.01
7:06:41 PM,-0.66,-0.69,8.63,0.01,-0.02,0.01
7:06:42 PM,-0.56,-0.72,8.65,0.01,-0.02,0.01
7:06:42 PM,-0.62,-0.75,8.63,0.01,-0.01,0.01
7:06:42 PM,-0.68,-0.72,8.64,0.02,0.00,0.01
7:06:42 PM,-0.63,-0.73,8.66,0.02,0.00,0.01
7:06:42 PM,-0.70,-0.66,8.66,0.00,-0.01,0.01
7:06:42 PM,-0.87,-0.67,8.64,0.01,-0.00,0.01
7:06:42 PM,-0.68,-0.71,8.67,0.00,-0.03,0.01
7:06:42 PM,-0.71,-0.71,8.65,0.01,-0.01,0.01
7:06:42 PM,-0.73,-0.69,8.64,-0.00,-0.01,0.01
7:06:43 PM,-0.64,-0.72,8.63,0.03,-0.01,0.01
7:06:43 PM,-0.95,-0.67,8.66,0.01,-0.04,0.01
7:06:43 PM,-0.97,-0.66,8.65,0.02,-0.01,0.01
7:06:43 PM,-0.51,-0.70,8.66,0.02,-0.01,0.01
7:06:43 PM,-0.67,-0.69,8.66,0.02,-0.01,0.01
7:06:43 PM,-0.64,-0.70,8.65,0.00,-0.02,0.01
7:06:43 PM,-0.43,-0.72,8.72,-0.00,-0.05,0.01
7:06:43 PM,-0.72,-0.71,8.65,-0.00,-0.01,0.01
7:06:43 PM,-0.78,-0.72,8.66,0.01,0.00,0.01
7:06:43 PM,-0.59,-0.75,8.63,0.01,-0.03,0.01
7:06:44 PM,-0.45,-0.79,8.67,0.01,-0.01,0.01
7:06:44 PM,-0.71,-0.73,8.61,0.01,-0.02,0.01
7:06:44 PM,-0.68,-0.73,8.66,0.01,0.00,0.01
7:06:44 PM,-0.66,-0.76,8.68,0.01,0.00,0.01
7:06:44 PM,-0.83,-0.68,8.66,0.01,-0.00,0.01
7:06:44 PM,-0.77,-0.70,8.64,-0.00,0.02,0.01
7:06:44 PM,-0.39,-0.74,8.68,0.02,0.05,0.01
7:06:44 PM,-0.35,-0.79,8.63,0.00,0.00,0.01
7:06:44 PM,-0.59,-0.80,8.62,0.00,-0.00,0.01
7:06:45 PM,-0.63,-0.75,8.63,-0.01,-0.04,0.01
7:06:45 PM,-0.85,-0.72,8.69,0.01,0.01,0.01
7:06:45 PM,-0.60,-0.72,8.65,0.02,-0.01,0.01
7:06:45 PM,-0.45,-0.75,8.66,0.01,-0.06,0.01
7:06:45 PM,-0.47,-0.74,8.69,-0.01,-0.05,0.01
7:06:45 PM,-0.59,-0.75,8.65,0.02,-0.04,0.01
7:06:45 PM,-0.66,-0.73,8.64,0.01,-0.05,0.01
7:06:45 PM,-0.57,-0.73,8.64,0.02,0.00,0.01
7:06:45 PM,-0.73,-0.73,8.63,0.02,0.04,0.01
7:06:45 PM,-0.63,-0.68,8.61,0.01,0.02,0.01
7:06:46 PM,-0.53,-0.72,8.70,0.00,-0.02,0.01
7:06:46 PM,-0.60,-0.70,8.68,0.02,-0.04,0.01
7:06:46 PM,-0.72,-0.72,8.64,-0.00,-0.02,0.01
7:06:46 PM,-0.59,-0.75,8.68,0.01,0.02,0.01
7:06:46 PM,-0.66,-0.71,8.59,-0.00,-0.02,0.01
7:06:46 PM,-0.63,-0.72,8.66,0.02,0.03,0.01
7:06:46 PM,-0.65,-0.71,8.68,0.02,0.02,0.01
7:06:46 PM,-0.52,-0.73,8.69,0.02,0.01,0.01
7:06:46 PM,-0.57,-0.72,8.63,0.01,-0.05,0.01
7:06:47 PM,-0.74,-0.75,8.70,0.02,-0.02,0.01
7:06:47 PM,-0.76,-0.67,8.72,0.03,-0.05,0.01
7:06:47 PM,-0.87,-0.64,8.69,0.00,-0.01,0.01
7:06:47 PM,-0.73,-0.68,8.66,-0.00,-0.01,0.01
7:06:47 PM,-0.69,-0.65,8.66,-0.01,-0.05,0.01
7:06:47 PM,-0.70,-0.72,8.66,0.02,-0.00,0.01
7:06:47 PM,-0.67,-0.70,8.62,0.01,-0.02,0.01
7:06:47 PM,-0.54,-0.72,8.67,0.01,-0.06,0.01
7:06:47 PM,-0.58,-0.73,8.66,0.03,0.04,0.01
7:06:47 PM,-0.82,-0.65,8.66,0.03,0.06,0.01
7:06:48 PM,-0.70,-0.69,8.66,0.00,-0.01,0.01
7:06:48 PM,-0.59,-0.67,8.64,0.00,-0.05,0.01
7:06:48 PM,-0.75,-0.70,8.65,0.03,0.00,0.01
7:06:48 PM,-0.58,-0.69,8.67,0.00,-0.04,0.01
7:06:48 PM,-0.60,-0.74,8.64,0.02,0.02,0.01
7:06:48 PM,-0.61,-0.73,8.65,0.03,0.01,0.01
7:06:48 PM,-0.67,-0.74,8.69,-0.01,-0.08,0.01
7:06:48 PM,-0.90,-0.69,8.65,0.00,-0.01,0.01
7:06:48 PM,-0.94,-0.64,8.58,0.01,0.03,0.01
7:06:49 PM,-0.62,-0.66,8.65,0.01,-0.02,0.01
7:06:49 PM,-0.47,-0.69,8.68,0.00,-0.04,0.01
7:06:49 PM,-0.60,-0.70,8.60,0.02,-0.04,0.01
7:06:49 PM,-0.81,-0.74,8.58,0.01,-0.01,0.01
7:06:49 PM,-0.80,-0.72,8.68,0.02,0.03,0.01
7:06:49 PM,-0.76,-0.67,8.68,0.03,-0.01,0.01
7:06:49 PM,-0.69,-0.68,8.65,0.01,-0.01,0.01
7:06:49 PM,-0.62,-0.69,8.65,-0.01,-0.03,0.01
7:06:49 PM,-0.57,-0.71,8.68,0.00,-0.03,0.01
7:06:49 PM,-0.55,-0.72,8.67,0.04,0.03,0.01
7:06:50 PM,-0.62,-0.72,8.66,0.02,0.02,0.01
7:06:50 PM,-0.73,-0.70,8.70,0.01,-0.00,0.01
7:06:50 PM,-0.69,-0.72,8.67,0.02,-0.00,0.01
7:06:50 PM,-0.71,-0.70,8.64,-0.00,-0.01,0.01
7:06:50 PM,-0.74,-0.69,8.64,-0.00,-0.02,0.01
7:06:50 PM,-0.60,-0.69,8.62,-0.00,-0.04,0.01
7:06:50 PM,-0.38,-0.74,8.70,0.03,0.02,0.01
7:06:50 PM,-0.43,-0.70,8.65,-0.00,-0.05,0.01
7:06:50 PM,-0.67,-0.69,8.64,-0.01,-0.03,0.01
7:06:51 PM,-0.55,-0.74,8.65,0.02,0.03,0.01
7:06:51 PM,-0.68,-0.72,8.66,0.02,0.01,0.01
7:06:51 PM,-0.82,-0.67,8.66,0.01,-0.02,0.01
7:06:51 PM,-0.70,-0.71,8.66,0.00,-0.06,0.01
7:06:51 PM,-0.66,-0.75,8.60,0.01,-0.10,0.01
7:06:51 PM,-0.66,-0.67,8.64,-0.02,-0.12,0.01
7:06:51 PM,-0.75,-0.65,8.66,0.01,-0.05,0.01
7:06:51 PM,-0.55,-0.70,8.65,-0.00,-0.06,0.01
7:06:51 PM,-0.56,-0.71,8.66,0.02,-0.01,0.01
7:06:51 PM,-0.60,-0.70,8.64,0.01,0.00,0.01
7:06:52 PM,-0.73,-0.68,8.64,0.00,-0.04,0.01
7:06:52 PM,-0.62,-0.72,8.67,0.03,-0.01,0.01
7:06:52 PM,-0.72,-0.69,8.64,0.01,-0.02,0.01
7:06:52 PM,-0.70,-0.64,8.65,-0.00,-0.05,0.01
7:06:52 PM,-0.67,-0.66,8.66,-0.00,-0.10,0.01
7:06:52 PM,-0.56,-0.70,8.65,0.01,-0.04,0.01
7:06:52 PM,-0.59,-0.70,8.64,0.01,-0.02,0.01
7:06:52 PM,-0.65,-0.71,8.73,-0.00,-0.05,0.01
7:06:52 PM,-0.71,-0.67,8.64,0.03,0.03,0.01
7:06:53 PM,-0.63,-0.66,8.61,0.00,0.01,0.01
7:06:53 PM,-0.64,-0.63,8.70,-0.00,-0.03,0.01
7:06:53 PM,-0.71,-0.68,8.62,0.00,-0.05,0.01
7:06:53 PM,-0.73,-0.66,8.60,0.02,0.03,0.01
7:06:53 PM,-0.73,-0.67,8.68,0.01,0.03,0.01
7:06:53 PM,-0.48,-0.68,8.71,0.00,0.01,0.01
7:06:53 PM,-0.45,-0.72,8.66,0.04,0.05,0.01
7:06:53 PM,-0.82,-0.68,8.61,0.01,0.07,0.01
7:06:53 PM,-0.84,-0.64,8.64,0.04,0.14,0.01
7:06:54 PM,-0.43,-0.68,8.68,0.02,0.01,0.01
7:06:54 PM,-0.38,-0.69,8.68,-0.01,-0.06,0.01
7:06:54 PM,-0.66,-0.73,8.64,0.00,-0.03,0.01
7:06:54 PM,-0.60,-0.72,8.60,0.02,0.03,0.01
7:06:54 PM,-0.43,-0.64,8.71,-0.00,-0.03,0.01
7:06:54 PM,-0.55,-0.70,8.68,0.02,0.03,0.01
7:06:54 PM,-0.31,-0.74,8.63,0.03,0.06,0.01
7:06:54 PM,-0.40,-0.73,8.69,-0.00,-0.03,0.01
7:06:54 PM,-0.76,-0.68,8.64,0.01,-0.04,0.01
7:06:54 PM,-0.82,-0.71,8.63,0.02,0.01,0.01
7:06:55 PM,-0.76,-0.68,8.68,0.04,0.04,0.01
7:06:55 PM,-0.72,-0.63,8.64,0.01,-0.02,0.01
7:06:55 PM,-0.73,-0.65,8.63,0.01,-0.02,0.01
7:06:55 PM,-0.61,-0.71,8.71,0.02,-0.01,0.01
7:06:55 PM,-0.69,-0.67,8.67,0.01,-0.03,0.01
7:06:55 PM,-0.66,-0.69,8.68,0.00,-0.06,0.01
7:06:55 PM,-0.77,-0.69,8.62,-0.00,-0.05,0.01
7:06:55 PM,-0.80,-0.66,8.65,0.02,0.03,0.01
7:06:55 PM,-0.71,-0.72,8.65,0.01,0.00,0.01
7:06:56 PM,-0.71,-0.62,8.66,0.01,-0.01,0.01
7:06:56 PM,-0.57,-0.67,8.69,0.02,-0.04,0.01
7:06:56 PM,-0.47,-0.70,8.65,0.02,0.00,0.01
7:06:56 PM,-0.63,-0.72,8.71,0.00,-0.00,0.01
7:06:56 PM,-0.66,-0.67,8.68,0.02,-0.02,0.01
7:06:56 PM,-0.55,-0.73,8.69,0.00,-0.03,0.01
7:06:56 PM,-0.66,-0.67,8.66,0.02,0.01,0.01
7:06:56 PM,-0.68,-0.69,8.65,0.02,0.01,0.01
7:06:56 PM,-0.67,-0.68,8.66,0.01,0.00,0.01
7:06:56 PM,-0.71,-0.67,8.67,-0.00,-0.02,0.01
7:06:57 PM,-0.98,-0.60,8.67,0.02,0.00,0.01
7:06:57 PM,-0.88,-0.66,8.62,0.03,0.01,0.01
7:06:57 PM,-0.73,-0.64,8.63,0.02,-0.00,0.01
7:06:57 PM,-0.57,-0.70,8.65,0.02,-0.02,0.01
7:06:57 PM,-0.48,-0.71,8.65,0.01,0.08,0.01
7:06:57 PM,-0.70,-0.74,8.64,0.03,0.01,0.01
7:06:57 PM,-0.61,-0.64,8.65,0.03,-0.01,0.01
7:06:57 PM,-0.61,-0.70,8.67,0.01,-0.05,0.01
7:06:57 PM,-0.69,-0.66,8.73,0.01,-0.07,0.01
7:06:58 PM,-0.65,-0.65,8.66,-0.01,-0.06,0.01
7:06:58 PM,-0.45,-0.71,8.68,0.00,-0.03,0.01
7:06:58 PM,-0.69,-0.68,8.66,0.01,-0.03,0.01
7:06:58 PM,-0.73,-0.70,8.63,0.02,-0.02,0.01
7:06:58 PM,-0.58,-0.73,8.61,0.00,-0.03,0.01
7:06:58 PM,-0.50,-0.73,8.69,0.01,-0.02,0.01
7:06:58 PM,-0.81,-0.70,8.62,0.02,-0.00,0.01
7:06:58 PM,-0.73,-0.69,8.68,0.02,0.02,0.01
7:06:58 PM,-0.72,-0.66,8.68,0.04,0.04,0.01
7:06:58 PM,-0.83,-0.59,8.66,0.01,-0.05,0.01
7:06:59 PM,-0.79,-0.60,8.64,0.00,-0.06,0.01
7:06:59 PM,-0.64,-0.66,8.63,-0.00,-0.07,0.01
7:06:59 PM,-0.85,-0.63,8.64,0.01,-0.03,0.01
7:06:59 PM,-0.90,-0.66,8.63,0.01,-0.05,0.01
7:06:59 PM,-0.85,-0.66,8.68,0.02,0.00,0.01
7:06:59 PM,-0.76,-0.67,8.70,0.01,0.02,0.01
7:06:59 PM,-0.70,-0.69,8.72,-0.00,-0.03,0.01
7:06:59 PM,-0.78,-0.64,8.64,-0.00,-0.01,0.01
7:06:59 PM,-0.87,-0.63,8.63,0.01,-0.01,0.01
7:07:00 PM,-0.51,-0.67,8.67,0.02,0.01,0.01
7:07:00 PM,-0.44,-0.70,8.68,0.00,-0.00,0.01
7:07:00 PM,-0.69,-0.69,8.65,0.02,0.01,0.01
7:07:00 PM,-0.76,-0.70,8.65,0.02,0.00,0.01
7:07:00 PM,-0.78,-0.66,8.70,0.02,0.01,0.01
7:07:00 PM,-0.65,-0.63,8.68,0.02,-0.00,0.01
7:07:00 PM,-0.69,-0.62,8.64,-0.01,-0.05,0.01
7:07:00 PM,-0.67,-0.64,8.64,0.02,-0.02,0.01
7:07:00 PM,-0.41,-0.75,8.60,0.02,-0.03,0.01
7:07:00 PM,-0.66,-0.67,8.60,0.01,-0.02,0.01
7:07:01 PM,-0.79,-0.66,8.65,0.02,0.03,0.01
7:07:01 PM,-0.60,-0.69,8.71,0.02,-0.00,0.01
7:07:01 PM,-0.52,-0.66,8.66,0.03,0.02,0.01
7:07:01 PM,-0.78,-0.65,8.67,0.01,-0.02,0.01
7:07:01 PM,-0.70,-0.67,8.67,-0.01,-0.06,0.01
7:07:01 PM,-0.55,-0.69,8.66,-0.00,-0.06,0.01
7:07:01 PM,-0.56,-0.71,8.64,0.03,0.01,0.01
7:07:01 PM,-0.55,-0.72,8.67,0.02,0.01,0.01
7:07:01 PM,-0.70,-0.70,8.63,0.01,-0.02,0.01
7:07:02 PM,-0.75,-0.65,8.66,0.02,0.01,0.01
7:07:02 PM,-0.68,-0.71,8.70,0.01,0.01,0.01
7:07:02 PM,-0.68,-0.64,8.69,0.01,0.01,0.01
7:07:02 PM,-0.63,-0.64,8.65,-0.00,-0.03,0.01
7:07:02 PM,-0.57,-0.69,8.67,0.00,-0.04,0.01
7:07:02 PM,-0.57,-0.68,8.66,0.02,0.02,0.01
7:07:02 PM,-0.76,-0.65,8.63,0.03,0.01,0.01
7:07:02 PM,-0.72,-0.69,8.64,-0.01,-0.06,0.01
7:07:02 PM,-0.71,-0.69,8.69,0.01,-0.00,0.01
7:07:02 PM,-0.89,-0.60,8.65,0.03,0.03,0.01
7:07:03 PM,-0.71,-0.69,8.68,-0.01,-0.04,0.01
7:07:03 PM,-0.54,-0.73,8.65,-0.00,-0.03,0.01
7:07:03 PM,-0.61,-0.68,8.67,0.01,0.01,0.01
7:07:03 PM,-0.63,-0.67,8.65,0.01,0.02,0.01
7:07:03 PM,-0.44,-0.69,8.59,0.03,-0.01,0.01
7:07:03 PM,-0.84,-0.64,8.68,0.04,0.04,0.01
7:07:03 PM,-0.68,-0.60,8.70,0.02,0.04,0.01
7:07:03 PM,-0.64,-0.64,8.64,-0.00,-0.06,0.01
7:07:03 PM,-0.70,-0.63,8.68,-0.00,-0.07,0.01
7:07:04 PM,-0.42,-0.72,8.71,0.01,-0.08,0.01
7:07:04 PM,-0.51,-0.72,8.64,0.01,-0.02,0.01
7:07:04 PM,-0.69,-0.65,8.59,0.01,0.02,0.01
7:07:04 PM,-0.66,-0.66,8.69,0.02,0.00,0.01
7:07:04 PM,-0.64,-0.69,8.66,0.01,-0.03,0.01
7:07:04 PM,-0.64,-0.69,8.67,0.01,-0.01,0.01
7:07:04 PM,-0.80,-0.61,8.64,0.01,-0.01,0.01
7:07:04 PM,-0.76,-0.64,8.65,-0.00,-0.03,0.01
7:07:04 PM,-0.63,-0.68,8.67,-0.00,-0.03,0.01
7:07:05 PM,-0.65,-0.69,8.67,0.01,-0.01,0.01
7:07:05 PM,-0.64,-0.70,8.66,0.02,-0.01,0.01
7:07:05 PM,-0.66,-0.69,8.68,0.01,-0.00,0.01
7:07:05 PM,-0.82,-0.59,8.61,-0.00,-0.01,0.01
7:07:05 PM,-0.81,-0.62,8.67,-0.00,-0.05,0.01
7:07:05 PM,-0.50,-0.66,8.70,0.00,-0.06,0.01
7:07:05 PM,-0.49,-0.69,8.67,0.01,-0.06,0.01
7:07:05 PM,-0.78,-0.63,8.66,0.03,0.00,0.01
7:07:05 PM,-0.73,-0.64,8.69,0.01,-0.04,0.01
7:07:05 PM,-0.62,-0.68,8.69,0.00,-0.05,0.01
7:07:06 PM,-0.62,-0.67,8.65,0.02,-0.02,0.01
7:07:06 PM,-0.67,-0.67,8.66,0.01,-0.04,0.01
7:07:06 PM,-0.76,-0.63,8.66,0.01,-0.02,0.01
7:07:06 PM,-0.62,-0.68,8.67,0.01,0.01,0.01
7:07:06 PM,-0.73,-0.65,8.63,0.01,-0.02,0.01
7:07:06 PM,-0.76,-0.64,8.62,0.01,0.00,0.01
7:07:06 PM,-0.70,-0.63,8.66,0.01,-0.04,0.01
7:07:06 PM,-0.69,-0.65,8.70,0.03,0.01,0.01
7:07:06 PM,-0.73,-0.63,8.69,0.02,-0.01,0.01
7:07:07 PM,-0.72,-0.58,8.67,0.00,-0.02,0.01
7:07:07 PM,-0.79,-0.60,8.64,-0.01,-0.03,0.01
7:07:07 PM,-0.62,-0.69,8.65,0.00,-0.03,0.01
7:07:07 PM,-0.68,-0.64,8.70,0.02,-0.01,0.01
7:07:07 PM,-0.65,-0.68,8.64,0.02,0.01,0.01
7:07:07 PM,-0.80,-0.64,8.65,0.00,-0.01,0.01
7:07:07 PM,-0.70,-0.65,8.72,0.02,0.03,0.01
7:07:07 PM,-0.78,-0.60,8.70,0.02,0.04,0.01
7:07:07 PM,-0.84,-0.62,8.62,0.00,-0.02,0.01
7:07:07 PM,-0.63,-0.66,8.68,0.01,-0.07,0.01
7:07:08 PM,-0.69,-0.65,8.66,0.01,-0.03,0.01
7:07:08 PM,-0.67,-0.64,8.64,0.01,-0.00,0.01
7:07:08 PM,-0.72,-0.64,8.67,-0.01,-0.05,0.01
7:07:08 PM,-0.63,-0.65,8.63,0.01,-0.03,0.01
7:07:08 PM,-0.62,-0.64,8.65,0.01,0.00,0.01
7:07:08 PM,-0.68,-0.67,8.63,0.01,0.00,0.01
7:07:08 PM,-0.78,-0.64,8.69,0.02,-0.01,0.01
7:07:08 PM,-0.79,-0.60,8.68,0.01,-0.01,0.01
7:07:08 PM,-0.48,-0.70,8.66,-0.01,-0.07,0.01
7:07:09 PM,-0.56,-0.68,8.66,0.01,-0.04,0.01
7:07:09 PM,-0.61,-0.62,8.65,0.01,-0.01,0.01
7:07:09 PM,-0.77,-0.60,8.73,0.02,0.00,0.01
7:07:09 PM,-0.80,-0.61,8.65,0.02,-0.02,0.01
7:07:09 PM,-0.76,-0.63,8.63,-0.01,-0.04,0.01
7:07:09 PM,-0.62,-0.65,8.65,0.00,-0.02,0.01
7:07:09 PM,-0.67,-0.64,8.67,0.03,-0.01,0.01
7:07:09 PM,-0.60,-0.65,8.69,0.01,0.02,0.01
7:07:09 PM,-0.70,-0.63,8.64,0.00,-0.03,0.01
7:07:09 PM,-0.77,-0.59,8.67,0.01,-0.03,0.01
7:07:10 PM,-0.81,-0.61,8.64,0.01,-0.04,0.01
7:07:10 PM,-0.64,-0.66,8.66,0.01,-0.04,0.01
7:07:10 PM,-0.67,-0.68,8.67,0.01,-0.00,0.01
7:07:10 PM,-0.64,-0.65,8.65,0.00,-0.02,0.01
7:07:10 PM,-0.71,-0.66,8.63,0.02,-0.01,0.01
7:07:10 PM,-0.78,-0.65,8.64,0.03,-0.00,0.01
7:07:10 PM,-0.80,-0.63,8.63,0.01,-0.03,0.01
7:07:10 PM,-0.74,-0.60,8.70,0.02,-0.05,0.01
7:07:10 PM,-0.81,-0.59,8.63,0.02,-0.03,0.01
7:07:11 PM,-0.73,-0.67,8.61,0.01,0.01,0.01
7:07:11 PM,-0.58,-0.69,8.60,0.00,-0.04,0.01
7:07:11 PM,-0.60,-0.69,8.65,0.01,-0.02,0.01
7:07:11 PM,-0.63,-0.69,8.62,0.03,0.01,0.01
7:07:11 PM,-0.76,-0.64,8.67,0.00,-0.05,0.01
7:07:11 PM,-0.72,-0.60,8.68,0.01,-0.03,0.01
7:07:11 PM,-0.57,-0.66,8.64,0.00,-0.06,0.01
7:07:11 PM,-0.65,-0.66,8.64,0.01,0.01,0.01
7:07:11 PM,-0.67,-0.63,8.67,0.00,-0.07,0.01
7:07:11 PM,-0.67,-0.61,8.66,0.01,-0.01,0.01
7:07:12 PM,-0.68,-0.60,8.66,0.01,-0.05,0.01
7:07:12 PM,-0.63,-0.64,8.72,0.02,-0.01,0.01
7:07:12 PM,-0.76,-0.61,8.69,0.02,0.01,0.01
7:07:12 PM,-0.71,-0.63,8.65,0.01,-0.04,0.01
7:07:12 PM,-0.64,-0.64,8.63,-0.00,-0.04,0.01
7:07:12 PM,-0.64,-0.66,8.68,0.02,0.02,0.01
7:07:12 PM,-0.78,-0.62,8.68,0.01,0.00,0.01
7:07:12 PM,-0.69,-0.64,8.62,0.01,-0.04,0.01
7:07:12 PM,-0.62,-0.66,8.69,0.01,-0.02,0.01
7:07:13 PM,-0.71,-0.64,8.69,0.02,0.01,0.01
7:07:13 PM,-0.73,-0.63,8.62,0.01,-0.03,0.01
7:07:13 PM,-0.57,-0.67,8.70,0.03,0.02,0.01
7:07:13 PM,-0.71,-0.63,8.66,0.02,-0.03,0.01
7:07:13 PM,-0.78,-0.59,8.68,0.02,0.02,0.01
7:07:13 PM,-0.69,-0.64,8.69,0.01,-0.04,0.01
7:07:13 PM,-0.71,-0.65,8.70,0.01,-0.01,0.01
7:07:13 PM,-0.80,-0.62,8.67,0.01,-0.01,0.01
7:07:13 PM,-0.67,-0.62,8.69,0.01,-0.03,0.01
7:07:13 PM,-0.67,-0.61,8.64,0.00,0.00,0.01
7:07:14 PM,-0.76,-0.61,8.66,0.01,-0.00,0.01
7:07:14 PM,-0.84,-0.62,8.65,-0.00,-0.03,0.01
7:07:14 PM,-0.78,-0.59,8.70,0.01,0.01,0.01
7:07:14 PM,-0.72,-0.63,8.66,0.00,-0.00,0.01
7:07:14 PM,-0.68,-0.65,8.63,0.02,0.02,0.01
7:07:14 PM,-0.82,-0.65,8.64,0.01,-0.04,0.01
7:07:14 PM,-0.70,-0.68,8.67,0.02,0.01,0.01
7:07:14 PM,-0.85,-0.61,8.64,0.02,0.02,0.01
7:07:14 PM,-0.90,-0.62,8.61,0.00,-0.05,0.01
7:07:15 PM,-0.70,-0.63,8.67,0.00,-0.05,0.01
7:07:15 PM,-0.68,-0.66,8.66,0.00,-0.04,0.01
7:07:15 PM,-0.52,-0.66,8.66,0.01,-0.01,0.01
7:07:15 PM,-0.71,-0.64,8.68,0.02,0.03,0.01
7:07:15 PM,-0.54,-0.67,8.66,0.01,-0.03,0.01
7:07:15 PM,-0.73,-0.65,8.70,-0.00,-0.06,0.01
7:07:15 PM,-0.78,-0.64,8.66,0.01,0.00,0.01
7:07:15 PM,-0.84,-0.59,8.69,-0.01,-0.06,0.01
7:07:15 PM,-0.74,-0.64,8.64,0.02,-0.01,0.01
7:07:15 PM,-0.63,-0.67,8.63,-0.01,-0.03,0.01
7:07:16 PM,-0.64,-0.67,8.66,0.01,-0.02,0.01
7:07:16 PM,-0.71,-0.64,8.66,0.01,0.00,0.01
7:07:16 PM,-0.81,-0.64,8.64,0.02,0.01,0.01
7:07:16 PM,-0.86,-0.62,8.68,0.02,0.01,0.01
7:07:16 PM,-0.79,-0.60,8.62,-0.00,-0.01,0.01
7:07:16 PM,-0.69,-0.61,8.68,0.01,0.00,0.01
7:07:16 PM,-0.74,-0.66,8.65,0.01,0.01,0.01
7:07:16 PM,-0.78,-0.66,8.64,0.01,-0.02,0.01
7:07:16 PM,-0.62,-0.58,8.71,0.01,-0.06,0.01
7:07:17 PM,-0.66,-0.62,8.69,0.02,-0.00,0.01
7:07:17 PM,-0.96,-0.61,8.61,0.02,0.04,0.01
7:07:17 PM,-0.76,-0.61,8.69,0.02,0.03,0.01
7:07:17 PM,-0.64,-0.63,8.69,0.02,-0.00,0.01
7:07:17 PM,-0.85,-0.63,8.62,-0.01,-0.06,0.01
7:07:17 PM,-0.78,-0.63,8.68,0.00,-0.03,0.01
7:07:17 PM,-0.61,-0.65,8.64,-0.00,-0.07,0.01
7:07:17 PM,-0.49,-0.67,8.66,0.03,0.01,0.01
7:07:17 PM,-0.75,-0.62,8.67,0.01,0.01,0.01
7:07:18 PM,-0.91,-0.58,8.65,0.02,-0.01,0.01
7:07:18 PM,-0.73,-0.61,8.65,0.00,-0.06,0.01
7:07:18 PM,-0.68,-0.66,8.69,0.02,-0.02,0.01
7:07:18 PM,-0.75,-0.61,8.64,0.01,-0.04,0.01
7:07:18 PM,-0.76,-0.62,8.63,0.02,-0.01,0.01
7:07:18 PM,-0.82,-0.61,8.65,0.00,-0.02,0.01
7:07:18 PM,-0.70,-0.65,8.63,0.01,-0.01,0.01
7:07:18 PM,-0.69,-0.64,8.63,0.01,-0.03,0.01
7:07:18 PM,-0.64,-0.63,8.71,0.01,-0.02,0.01
7:07:18 PM,-0.86,-0.60,8.64,0.03,0.01,0.01
7:07:19 PM,-0.77,-0.65,8.64,0.00,-0.01,0.01
7:07:19 PM,-0.69,-0.61,8.72,0.02,0.04,0.01
7:07:19 PM,-0.80,-0.57,8.69,0.03,0.01,0.01
7:07:19 PM,-0.73,-0.70,8.67,0.01,-0.05,0.01
7:07:19 PM,-0.72,-0.61,8.68,-0.02,-0.09,0.01
7:07:19 PM,-0.62,-0.67,8.64,-0.01,-0.09,0.01
7:07:19 PM,-0.57,-0.68,8.64,-0.07,-0.02,0.01
7:07:19 PM,-0.50,-0.71,8.64,-0.01,-0.10,0.01
7:07:19 PM,-0.85,-0.59,8.74,0.01,-0.03,0.01
7:07:20 PM,-0.82,-0.64,8.66,0.02,0.03,0.01
7:07:20 PM,-0.80,-0.74,8.62,0.04,0.04,0.01
7:07:20 PM,-0.85,-0.72,8.68,0.05,0.06,0.01
7:07:20 PM,-0.78,-0.68,8.64,-0.01,-0.03,0.01
7:07:20 PM,-0.85,-0.66,8.66,0.02,0.04,0.01
7:07:20 PM,-0.82,-0.70,8.65,-0.00,-0.03,0.01
7:07:20 PM,-0.86,-0.74,8.61,-0.01,-0.02,0.01
7:07:20 PM,-0.71,-0.64,8.69,0.04,0.02,0.01
7:07:20 PM,-0.67,-0.65,8.66,-0.01,-0.08,0.01
7:07:20 PM,-0.74,-0.76,8.59,-0.00,-0.01,0.01
7:07:21 PM,-0.74,-0.75,8.68,0.02,-0.02,0.01
7:07:21 PM,-0.70,-0.73,8.66,0.02,0.01,0.01
7:07:21 PM,-0.68,-0.72,8.67,0.00,-0.03,0.01
7:07:21 PM,-0.87,-0.73,8.67,0.01,-0.03,0.01
7:07:21 PM,-0.72,-0.73,8.67,-0.00,-0.05,0.01
7:07:21 PM,-0.66,-0.76,8.66,-0.00,-0.05,0.01
7:07:21 PM,-0.74,-0.72,8.67,0.02,-0.03,0.01
7:07:21 PM,-0.56,-0.75,8.62,0.00,-0.06,0.01
7:07:21 PM,-0.63,-0.76,8.66,0.01,-0.02,0.01
7:07:22 PM,-0.77,-0.75,8.69,0.01,0.00,0.01
7:07:22 PM,-0.85,-0.76,8.65,0.01,-0.05,0.01
7:07:22 PM,-0.58,-0.75,8.66,-0.01,-0.05,0.01
7:07:22 PM,-0.68,-0.75,8.68,0.00,0.00,0.01
7:07:22 PM,-0.90,-0.80,8.61,0.05,0.01,0.01
7:07:22 PM,-0.77,-0.82,8.61,-0.01,-0.06,0.01
7:07:22 PM,-0.58,-0.79,8.63,0.02,-0.04,0.01
7:07:22 PM,-0.60,-0.74,8.68,0.02,0.03,0.01
7:07:22 PM,-0.90,-0.72,8.67,0.00,-0.01,0.01
7:07:22 PM,-0.76,-0.77,8.65,0.02,0.02,0.01
7:07:23 PM,-0.73,-0.71,8.66,0.03,0.01,0.01
7:07:23 PM,-1.06,-0.68,8.62,0.01,0.01,0.01
7:07:23 PM,-0.92,-0.72,8.64,0.00,-0.03,0.01
7:07:23 PM,-0.67,-0.78,8.63,-0.01,-0.06,0.01
7:07:23 PM,-0.65,-0.79,8.62,0.00,-0.05,0.01
7:07:23 PM,-0.60,-0.78,8.68,0.01,-0.02,0.01
7:07:23 PM,-0.70,-0.77,8.65,0.02,0.01,0.01
7:07:23 PM,-0.80,-0.74,8.62,0.01,0.02,0.01
7:07:24 PM,-0.80,-0.76,8.64,0.01,-0.01,0.01
7:07:24 PM,-0.79,-0.74,8.67,0.02,-0.03,0.01
7:07:24 PM,-0.88,-0.73,8.65,0.02,0.02,0.01
7:07:24 PM,-1.00,-0.71,8.68,0.02,0.01,0.01
7:07:24 PM,-0.82,-0.79,8.63,0.01,-0.03,0.01
7:07:24 PM,-0.82,-0.75,8.64,0.01,-0.01,0.01
7:07:24 PM,-0.77,-0.72,8.66,0.01,-0.01,0.01
7:07:24 PM,-0.65,-0.78,8.64,-0.01,-0.03,0.01
7:07:24 PM,-0.75,-0.74,8.63,0.01,-0.05,0.01
7:07:24 PM,-0.82,-0.75,8.62,0.00,-0.01,0.01
7:07:24 PM,-0.97,-0.80,8.75,-0.00,-0.04,0.01
7:07:25 PM,-0.89,-0.77,8.62,0.01,-0.01,0.01
7:07:25 PM,-0.68,-0.76,8.66,0.00,-0.04,0.01
7:07:25 PM,-0.67,-0.82,8.63,0.02,-0.01,0.01
7:07:25 PM,-0.75,-0.82,8.61,0.00,-0.04,0.01
7:07:25 PM,-0.67,-0.77,8.67,0.00,-0.02,0.01
7:07:25 PM,-0.80,-0.75,8.70,0.02,0.01,0.01
7:07:25 PM,-0.78,-0.78,8.67,0.02,-0.02,0.01
7:07:25 PM,-0.78,-0.79,8.65,0.01,-0.01,0.01
7:07:25 PM,-0.75,-0.77,8.67,0.01,0.00,0.01
7:07:26 PM,-0.81,-0.73,8.66,0.01,-0.01,0.01
7:07:26 PM,-0.86,-0.76,8.66,0.02,-0.02,0.01
7:07:26 PM,-0.79,-0.77,8.64,0.01,-0.02,0.01
7:07:26 PM,-0.87,-0.73,8.62,0.02,-0.01,0.01
7:07:26 PM,-0.86,-0.71,8.65,0.01,-0.04,0.01
7:07:26 PM,-0.68,-0.77,8.67,0.00,-0.01,0.01
7:07:26 PM,-1.05,-0.71,8.61,-0.02,-0.04,0.01
7:07:26 PM,-0.94,-0.70,8.64,-0.01,-0.03,0.01
7:07:26 PM,-0.78,-0.80,8.63,-0.00,-0.06,0.01
7:07:26 PM,-0.70,-0.79,8.67,0.00,-0.04,0.01
7:07:27 PM,-0.78,-0.75,8.64,-0.01,-0.04,0.01
7:07:27 PM,-0.40,-0.80,8.71,0.01,-0.01,0.01
7:07:27 PM,-0.83,-0.77,8.67,-0.00,0.01,0.01
7:07:27 PM,-0.89,-0.77,8.62,0.01,0.00,0.01
7:07:27 PM,-0.94,-0.82,8.57,0.05,0.02,0.01
7:07:27 PM,-0.92,-0.75,8.67,0.02,-0.02,0.01
7:07:27 PM,-0.93,-0.76,8.61,-0.02,-0.08,0.01
7:07:27 PM,-1.07,-0.73,8.63,0.01,0.02,0.01
7:07:27 PM,-0.92,-0.72,8.65,0.02,0.03,0.01
7:07:28 PM,-0.72,-0.68,8.71,-0.01,-0.03,0.01
7:07:28 PM,-0.66,-0.76,8.71,0.01,-0.03,0.01
7:07:28 PM,-1.09,-0.67,8.65,0.01,-0.01,0.01
7:07:28 PM,-0.84,-0.74,8.68,0.01,0.00,0.01
7:07:28 PM,-0.93,-0.74,8.64,0.00,0.02,0.01
7:07:28 PM,-0.95,-0.75,8.64,0.00,-0.00,0.01
7:07:28 PM,-0.91,-0.74,8.63,0.01,-0.02,0.01
7:07:28 PM,-0.87,-0.77,8.67,0.04,0.03,0.01
7:07:28 PM,-0.90,-0.66,8.65,0.03,0.08,0.01
7:07:29 PM,-0.89,-0.69,8.63,0.02,0.02,0.01
7:07:29 PM,-0.90,-0.76,8.64,0.01,-0.03,0.01
7:07:29 PM,-0.96,-0.68,8.64,0.00,-0.04,0.01
7:07:29 PM,-0.99,-0.63,8.71,0.01,-0.05,0.01
7:07:29 PM,-1.08,-0.65,8.64,0.01,-0.00,0.01
7:07:29 PM,-0.96,-0.68,8.68,0.01,-0.05,0.01
7:07:29 PM,-0.88,-0.74,8.66,-0.00,-0.03,0.01
7:07:29 PM,-0.96,-0.67,8.62,0.02,-0.04,0.01
7:07:29 PM,-0.91,-0.73,8.64,0.02,-0.04,0.01
7:07:29 PM,-0.92,-0.71,8.63,0.02,-0.02,0.01
7:07:30 PM,-0.74,-0.70,8.67,0.01,-0.03,0.01
7:07:30 PM,-0.84,-0.69,8.68,0.01,0.03,0.01
7:07:30 PM,-0.82,-0.66,8.66,-0.00,-0.04,0.01
7:07:30 PM,-0.83,-0.68,8.64,0.00,-0.06,0.01
7:07:30 PM,-1.09,-0.64,8.65,0.02,0.01,0.01
7:07:30 PM,-0.94,-0.69,8.68,0.03,-0.01,0.01
7:07:30 PM,-1.07,-0.80,8.69,0.05,0.01,0.01
7:07:30 PM,-0.91,-0.72,8.65,0.04,-0.01,0.01
7:07:30 PM,-1.02,-0.68,8.58,0.02,0.03,0.01
7:07:31 PM,-0.78,-0.67,8.66,0.00,-0.06,0.01
7:07:31 PM,-0.74,-0.71,8.68,0.01,-0.01,0.01
7:07:31 PM,-1.03,-0.65,8.64,0.00,-0.02,0.01
7:07:31 PM,-0.82,-0.71,8.66,0.00,-0.04,0.01
7:07:31 PM,-0.84,-0.61,8.72,0.03,0.03,0.01
7:07:31 PM,-0.78,-0.75,8.57,-0.01,-0.02,0.01
7:07:31 PM,-0.93,-0.68,8.69,-0.01,-0.07,0.01
7:07:31 PM,-0.91,-0.66,8.69,0.02,-0.01,0.01
7:07:31 PM,-0.95,-0.67,8.68,0.03,0.04,0.01
7:07:31 PM,-0.98,-0.71,8.71,0.01,0.01,0.01
7:07:32 PM,-1.00,-0.63,8.59,0.03,-0.02,0.01
7:07:32 PM,-0.84,-0.74,8.59,-0.01,-0.06,0.01
7:07:32 PM,0.34,-0.79,8.73,0.03,-0.08,0.01
7:07:32 PM,-0.33,-0.80,8.62,-0.02,-0.09,0.01
7:07:32 PM,-1.01,-0.70,8.66,0.02,-0.01,0.01
7:07:32 PM,-0.84,-0.67,8.63,0.01,0.01,0.01
7:07:32 PM,-0.70,-0.70,8.64,0.00,-0.02,0.01
7:07:32 PM,-0.72,-0.73,8.68,0.01,-0.03,0.01
7:07:32 PM,-0.89,-0.68,8.62,0.01,-0.04,0.01
7:07:33 PM,-0.95,-0.66,8.67,0.02,-0.01,0.01
7:07:33 PM,-1.00,-0.65,8.66,0.01,-0.04,0.01
7:07:33 PM,-0.96,-0.67,8.67,0.01,-0.01,0.01
7:07:33 PM,-0.91,-0.67,8.63,-0.00,-0.02,0.01
7:07:33 PM,-0.82,-0.68,8.68,0.02,-0.01,0.01
7:07:33 PM,-1.12,-0.66,8.62,0.02,0.01,0.01
7:07:33 PM,-0.90,-0.69,8.66,0.01,-0.03,0.01
7:07:33 PM,-0.99,-0.66,8.66,0.02,0.01,0.01
7:07:33 PM,-0.99,-0.66,8.65,0.01,0.01,0.01
7:07:33 PM,-0.91,-0.67,8.64,-0.01,-0.09,0.01
7:07:34 PM,-0.85,-0.63,8.65,-0.00,-0.08,0.01
7:07:34 PM,-0.79,-0.66,8.63,0.01,-0.04,0.01
7:07:34 PM,-0.79,-0.71,8.68,0.01,-0.02,0.01
7:07:34 PM,-0.99,-0.63,8.60,-0.01,0.00,0.01
7:07:34 PM,-0.92,-0.63,8.66,-0.01,-0.07,0.01
7:07:34 PM,-0.79,-0.71,8.66,0.00,-0.02,0.01
7:07:34 PM,-0.98,-0.66,8.61,0.03,0.01,0.01
7:07:34 PM,-0.98,-0.67,8.67,0.02,0.02,0.01
7:07:34 PM,-0.94,-0.67,8.64,0.01,-0.01,0.01
7:07:35 PM,-0.79,-0.69,8.66,0.00,-0.06,0.01
7:07:35 PM,-0.92,-0.66,8.66,-0.01,-0.05,0.01
7:07:35 PM,-0.88,-0.68,8.66,0.01,-0.03,0.01
7:07:35 PM,-0.80,-0.68,8.68,0.01,-0.01,0.01
7:07:35 PM,-0.85,-0.66,8.63,0.01,-0.03,0.01
7:07:35 PM,-0.75,-0.68,8.64,0.00,-0.03,0.01
7:07:35 PM,-0.90,-0.70,8.64,0.01,0.01,0.01
7:07:35 PM,-0.99,-0.67,8.64,0.01,0.00,0.01
7:07:35 PM,-0.96,-0.64,8.65,-0.00,-0.06,0.01
7:07:35 PM,-0.83,-0.68,8.63,0.00,-0.02,0.01
7:07:36 PM,-0.94,-0.68,8.64,0.01,-0.01,0.01
7:07:36 PM,-0.92,-0.68,8.64,0.02,-0.03,0.01
7:07:36 PM,-0.81,-0.69,8.68,0.01,-0.03,0.01
7:07:36 PM,-0.83,-0.68,8.65,0.02,0.02,0.01
7:07:36 PM,-0.84,-0.68,8.66,0.01,-0.03,0.01
7:07:36 PM,-0.93,-0.65,8.67,0.01,-0.00,0.01
7:07:36 PM,-0.83,-0.69,8.68,-0.00,-0.04,0.01
7:07:36 PM,-0.72,-0.74,8.61,0.01,-0.01,0.01
7:07:36 PM,-0.68,-0.71,8.69,0.03,0.06,0.01
7:07:37 PM,-0.91,-0.66,8.67,0.02,0.03,0.01
7:07:37 PM,-0.87,-0.68,8.65,0.02,-0.00,0.01
7:07:37 PM,-0.88,-0.69,8.62,0.01,-0.03,0.01
7:07:37 PM,-0.76,-0.72,8.66,0.02,-0.00,0.01
7:07:37 PM,-0.89,-0.70,8.65,0.01,-0.02,0.01
7:07:37 PM,-0.83,-0.69,8.65,0.00,-0.06,0.01
7:07:37 PM,-0.79,-0.72,8.67,0.01,-0.02,0.01
7:07:37 PM,-0.92,-0.66,8.67,0.02,0.01,0.01
7:07:37 PM,-0.92,-0.69,8.67,0.01,-0.08,0.01
7:07:37 PM,-0.90,-0.69,8.63,-0.00,-0.05,0.01
7:07:38 PM,-0.89,-0.66,8.66,0.01,-0.02,0.01
7:07:38 PM,-1.20,-0.57,8.70,0.03,0.04,0.01
7:07:38 PM,-0.96,-0.68,8.60,0.02,-0.03,0.01
7:07:38 PM,-0.72,-0.67,8.70,0.01,-0.02,0.01
7:07:38 PM,-0.83,-0.68,8.65,0.01,-0.02,0.01
7:07:38 PM,-1.02,-0.68,8.62,0.02,-0.08,0.01
7:07:38 PM,-0.88,-0.70,8.63,0.02,-0.02,0.01
7:07:38 PM,-0.95,-0.60,8.69,0.02,-0.02,0.01
7:07:38 PM,-0.92,-0.63,8.66,0.01,-0.04,0.01
7:07:39 PM,-0.85,-0.62,8.67,0.02,0.02,0.01
7:07:39 PM,-0.98,-0.60,8.65,0.01,-0.03,0.01
7:07:39 PM,-0.85,-0.67,8.67,0.01,-0.00,0.01
7:07:39 PM,-0.81,-0.65,8.67,0.01,-0.02,0.01
7:07:39 PM,-0.81,-0.59,8.70,0.01,-0.04,0.01
7:07:39 PM,-0.93,-0.60,8.66,0.01,-0.03,0.01
7:07:39 PM,-1.00,-0.60,8.64,0.01,-0.01,0.01
7:07:39 PM,-0.86,-0.67,8.64,0.00,-0.00,0.01
7:07:39 PM,-0.82,-0.70,8.64,0.01,-0.00,0.01
7:07:39 PM,-0.96,-0.64,8.64,0.02,0.02,0.01
7:07:40 PM,-0.91,-0.67,8.63,0.01,-0.01,0.01
7:07:40 PM,-0.86,-0.67,8.66,0.03,0.05,0.01
7:07:40 PM,-0.74,-0.71,8.69,0.01,-0.01,0.01
7:07:40 PM,-0.79,-0.65,8.68,-0.00,-0.05,0.01
7:07:40 PM,-0.87,-0.62,8.65,0.01,0.01,0.01
7:07:40 PM,-0.84,-0.63,8.68,0.01,-0.00,0.01
7:07:40 PM,-0.82,-0.63,8.68,0.01,0.00,0.01
7:07:40 PM,-0.92,-0.66,8.66,0.02,0.00,0.01
7:07:40 PM,-0.85,-0.68,8.60,0.02,-0.01,0.01
7:07:41 PM,-0.82,-0.65,8.68,0.01,0.02,0.01
7:07:41 PM,-0.96,-0.66,8.63,0.02,0.01,0.01
7:07:41 PM,-1.02,-0.60,8.65,0.01,-0.02,0.01
7:07:41 PM,-0.86,-0.66,8.63,0.02,0.01,0.01
7:07:41 PM,-0.92,-0.63,8.67,0.01,-0.05,0.01
7:07:41 PM,-0.94,-0.64,8.61,0.00,-0.05,0.01
7:07:41 PM,-0.84,-0.67,8.66,0.01,0.04,0.01
7:07:41 PM,-0.94,-0.72,8.68,0.03,0.05,0.01
7:07:41 PM,-0.88,-0.64,8.68,0.02,-0.01,0.01
7:07:42 PM,-0.82,-0.65,8.65,-0.00,-0.07,0.01
7:07:42 PM,-0.98,-0.62,8.63,0.00,-0.02,0.01
7:07:42 PM,-0.81,-0.65,8.67,0.00,-0.04,0.01
7:07:42 PM,-0.86,-0.66,8.64,0.01,-0.02,0.01
7:07:42 PM,-0.94,-0.66,8.66,0.01,-0.03,0.01
7:07:42 PM,-0.91,-0.67,8.66,0.01,-0.03,0.01
7:07:42 PM,-0.85,-0.69,8.71,0.03,-0.00,0.01
7:07:42 PM,-0.75,-0.70,8.64,0.03,0.03,0.01
7:07:42 PM,-0.77,-0.65,8.71,0.02,0.02,0.01
7:07:42 PM,-0.92,-0.62,8.69,0.02,-0.04,0.01
7:07:43 PM,-1.06,-0.62,8.66,0.01,-0.02,0.01
7:07:43 PM,-1.01,-0.64,8.61,0.02,0.00,0.01
7:07:43 PM,-0.94,-0.61,8.65,-0.00,-0.02,0.01
7:07:43 PM,-1.03,-0.58,8.64,0.01,-0.05,0.01
7:07:43 PM,-0.93,-0.65,8.62,-0.00,-0.08,0.01
7:07:43 PM,-0.99,-0.63,8.65,0.01,-0.01,0.01
7:07:43 PM,-0.92,-0.63,8.65,0.01,-0.01,0.01
7:07:43 PM,-0.83,-0.69,8.60,0.02,-0.00,0.01
7:07:43 PM,-0.80,-0.74,8.63,0.01,-0.01,0.01
7:07:44 PM,-0.88,-0.66,8.65,0.01,0.02,0.01
7:07:44 PM,-1.02,-0.62,8.64,0.03,0.01,0.01
7:07:44 PM,-0.82,-0.66,8.66,0.00,-0.04,0.01
7:07:44 PM,-0.76,-0.69,8.64,0.01,0.01,0.01
7:07:44 PM,-0.95,-0.62,8.62,0.02,-0.01,0.01
7:07:44 PM,-0.82,-0.60,8.68,0.01,-0.04,0.01
7:07:44 PM,-0.79,-0.66,8.64,0.01,-0.02,0.01
7:07:44 PM,-0.82,-0.64,8.66,0.01,-0.01,0.01
7:07:44 PM,-0.82,-0.64,8.63,0.01,-0.03,0.01
7:07:44 PM,-0.91,-0.62,8.63,0.00,-0.03,0.01
7:07:45 PM,-0.80,-0.69,8.62,0.00,-0.02,0.01
7:07:45 PM,-0.79,-0.68,8.65,0.02,0.03,0.01
7:07:45 PM,-0.94,-0.64,8.67,0.01,-0.02,0.01
7:07:45 PM,-0.82,-0.67,8.64,0.01,-0.00,0.01
7:07:45 PM,-0.79,-0.66,8.64,0.03,0.01,0.01
7:07:45 PM,-0.85,-0.62,8.65,0.01,-0.03,0.01
7:07:45 PM,-0.77,-0.66,8.68,0.01,-0.00,0.01
7:07:45 PM,-0.74,-0.66,8.64,0.01,-0.04,0.01
7:07:45 PM,-0.78,-0.67,8.65,0.00,-0.05,0.01
7:07:46 PM,-0.84,-0.64,8.62,0.02,0.01,0.01
7:07:46 PM,-0.88,-0.63,8.64,0.02,0.00,0.01
7:07:46 PM,-0.79,-0.69,8.67,0.03,0.03,0.01
7:07:46 PM,-0.84,-0.62,8.68,0.01,-0.02,0.01
7:07:46 PM,-0.87,-0.62,8.65,0.01,-0.06,0.01
7:07:46 PM,-0.91,-0.62,8.63,-0.00,-0.04,0.01
7:07:46 PM,-0.91,-0.66,8.65,-0.01,-0.05,0.01
7:07:46 PM,-0.88,-0.66,8.67,-0.01,-0.01,0.01
7:07:46 PM,-0.87,-0.65,8.62,-0.00,-0.02,0.01
7:07:46 PM,-0.83,-0.65,8.65,0.01,-0.00,0.01
7:07:47 PM,-0.78,-0.66,8.64,0.02,0.03,0.01
7:07:47 PM,-0.84,-0.66,8.66,0.02,0.00,0.01
7:07:47 PM,-0.81,-0.60,8.67,0.00,-0.00,0.01
7:07:47 PM,-0.93,-0.68,8.66,-0.01,-0.04,0.01
7:07:47 PM,-0.85,-0.68,8.63,0.03,0.08,0.01
7:07:47 PM,-0.79,-0.67,8.65,0.02,0.06,0.01
7:07:47 PM,-0.68,-0.67,8.68,0.00,-0.07,0.01
7:07:47 PM,-0.61,-0.70,8.65,0.01,-0.03,0.01
7:07:47 PM,-0.57,-0.72,8.69,0.00,-0.02,0.01
7:07:48 PM,-0.82,-0.68,8.65,0.02,-0.04,0.01
7:07:48 PM,-0.88,-0.65,8.64,0.04,-0.01,0.01
7:07:48 PM,-0.73,-0.69,8.65,0.02,-0.01,0.01
7:07:48 PM,-0.73,-0.61,8.70,-0.01,-0.07,0.01
7:07:48 PM,-0.93,-0.61,8.65,0.01,-0.07,0.01
7:07:48 PM,-0.93,-0.60,8.63,-0.00,-0.09,0.01
7:07:48 PM,-0.96,-0.62,8.63,-0.03,-0.13,0.01
7:07:48 PM,-0.95,-0.65,8.63,-0.00,-0.09,0.01
7:07:48 PM,-1.06,-0.63,8.60,0.02,-0.01,0.01
7:07:48 PM,-0.77,-0.63,8.68,0.02,0.04,0.01
7:07:49 PM,-0.78,-0.63,8.62,0.01,0.01,0.01
7:07:49 PM,-0.85,-0.61,8.65,0.02,0.03,0.01
7:07:49 PM,-0.77,-0.60,8.66,0.00,-0.01,0.01
7:07:49 PM,-0.47,-0.67,8.70,0.01,-0.08,0.01
7:07:49 PM,-0.66,-0.69,8.66,0.00,-0.08,0.01
7:07:49 PM,-0.82,-0.65,8.71,0.01,-0.06,0.01
7:07:49 PM,-0.62,-0.71,8.64,0.00,-0.04,0.01
7:07:49 PM,-0.75,-0.64,8.66,0.00,-0.08,0.01
7:07:49 PM,-0.93,-0.69,8.60,-0.02,-0.12,0.01
7:07:50 PM,-1.08,-0.64,8.66,-0.01,0.00,0.01
7:07:50 PM,-0.95,-0.61,8.61,0.01,0.01,0.01
7:07:50 PM,-0.87,-0.59,8.66,0.00,-0.01,0.01
7:07:50 PM,-0.75,-0.68,8.67,0.02,-0.01,0.01
7:07:50 PM,-0.73,-0.69,8.65,0.02,-0.03,0.01
7:07:50 PM,-0.82,-0.69,8.66,0.00,-0.02,0.01
7:07:50 PM,-0.90,-0.64,8.68,0.03,0.02,0.01
7:07:50 PM,-0.78,-0.62,8.65,0.01,-0.00,0.01
7:07:50 PM,-0.65,-0.67,8.66,0.01,-0.01,0.01
7:07:50 PM,-0.53,-0.67,8.67,0.01,-0.00,0.01
7:07:51 PM,-0.84,-0.61,8.63,0.01,-0.03,0.01
7:07:51 PM,-0.68,-0.64,8.67,0.01,-0.01,0.01
7:07:51 PM,-0.61,-0.63,8.68,0.02,0.01,0.01
7:07:51 PM,-0.77,-0.65,8.68,0.01,-0.01,0.01
7:07:51 PM,-0.77,-0.66,8.62,0.02,0.05,0.01
7:07:51 PM,-0.78,-0.63,8.64,0.01,0.00,0.01
7:07:51 PM,-0.72,-0.64,8.62,0.00,-0.01,0.01
7:07:51 PM,-0.54,-0.62,8.68,0.01,-0.03,0.01
7:07:51 PM,-0.51,-0.70,8.65,0.02,-0.01,0.01
7:07:52 PM,-0.56,-0.64,8.72,0.01,-0.02,0.01
7:07:52 PM,-0.54,-0.67,8.69,0.02,0.00,0.01
7:07:52 PM,-0.79,-0.64,8.67,0.02,0.02,0.01
7:07:52 PM,-0.89,-0.61,8.66,0.01,0.03,0.01
7:07:52 PM,-0.84,-0.61,8.67,0.01,-0.02,0.01
7:07:52 PM,-0.79,-0.59,8.69,0.02,0.01,0.01
7:07:52 PM,-0.65,-0.63,8.67,0.01,-0.01,0.01
7:07:52 PM,-0.46,-0.69,8.65,0.03,0.07,0.01
7:07:52 PM,-0.33,-0.68,8.67,0.03,0.06,0.01
7:07:53 PM,-0.63,-0.67,8.64,0.01,-0.01,0.01
7:07:53 PM,-0.64,-0.68,8.60,0.02,0.01,0.01
7:07:53 PM,-0.50,-0.66,8.69,0.02,0.04,0.01
7:07:53 PM,-0.59,-0.63,8.68,0.01,-0.05,0.01
7:07:53 PM,-0.54,-0.64,8.69,0.01,-0.04,0.01
7:07:53 PM,-0.38,-0.71,8.66,0.00,-0.04,0.01
7:07:53 PM,-0.58,-0.73,8.64,-0.00,-0.06,0.01
7:07:53 PM,-0.70,-0.70,8.63,0.01,-0.04,0.01
7:07:53 PM,-0.95,-0.61,8.61,0.01,-0.01,0.01
7:07:53 PM,-0.91,-0.62,8.62,-0.00,-0.03,0.01
7:07:54 PM,-0.80,-0.62,8.63,0.02,0.01,0.01
7:07:54 PM,-0.97,-0.59,8.58,0.02,0.05,0.01
7:07:54 PM,-0.96,-0.59,8.64,-0.01,-0.03,0.01
7:07:54 PM,-0.66,-0.64,8.68,0.00,-0.06,0.01
7:07:54 PM,-0.64,-0.65,8.64,0.01,-0.01,0.01
7:07:54 PM,-0.67,-0.64,8.65,0.02,-0.03,0.01
7:07:54 PM,-0.62,-0.67,8.70,0.03,0.04,0.01
7:07:54 PM,-0.66,-0.60,8.68,0.02,0.03,0.01
7:07:54 PM,-0.72,-0.62,8.66,0.01,-0.03,0.01
7:07:55 PM,-0.61,-0.62,8.67,0.01,-0.08,0.01
7:07:55 PM,-0.58,-0.68,8.63,-0.03,-0.11,0.01
7:07:55 PM,-0.60,-0.60,8.61,0.02,-0.06,0.01
7:07:55 PM,-0.55,-0.69,8.71,0.02,-0.00,0.01
7:07:55 PM,-0.74,-0.59,8.66,0.01,0.01,0.01
7:07:55 PM,-0.62,-0.58,8.69,0.01,0.01,0.01
7:07:55 PM,-0.76,-0.60,8.66,0.01,-0.01,0.01
7:07:55 PM,-0.75,-0.64,8.66,-0.01,-0.06,0.01
7:07:55 PM,-0.74,-0.61,8.66,0.03,0.02,0.01
7:07:55 PM,-0.86,-0.58,8.67,0.04,0.05,0.01
7:07:56 PM,-0.61,-0.61,8.70,0.04,0.06,0.01
7:07:56 PM,-0.52,-0.60,8.68,0.03,0.04,0.01
7:07:56 PM,-0.38,-0.62,8.71,0.02,-0.02,0.01
7:07:56 PM,-0.70,-0.64,8.65,0.00,-0.02,0.01
7:07:56 PM,-0.93,-0.58,8.62,0.02,0.04,0.01
7:07:56 PM,-0.65,-0.62,8.66,0.01,-0.01,0.01
7:07:56 PM,-0.77,-0.62,8.60,0.03,0.03,0.01
7:07:56 PM,-0.68,-0.64,8.68,0.04,0.04,0.01
7:07:56 PM,-0.46,-0.70,8.66,0.01,0.12,0.01
7:07:57 PM,-0.20,-0.62,8.74,-0.00,-0.03,0.01
7:07:57 PM,-0.38,-0.64,8.69,-0.01,-0.04,0.01
7:07:57 PM,-0.80,-0.59,8.67,-0.03,-0.16,0.01
7:07:57 PM,-1.00,-0.58,8.67,-0.00,-0.11,0.01
7:07:57 PM,-0.90,-0.58,8.64,0.00,-0.05,0.01
7:07:57 PM,-0.68,-0.58,8.69,0.03,0.07,0.01
7:07:57 PM,-0.61,-0.61,8.71,0.03,0.07,0.01
7:07:57 PM,-1.10,-0.53,8.67,-0.01,-0.10,0.01
7:07:57 PM,-1.62,-0.50,8.66,0.01,-0.01,0.01
7:07:57 PM,-1.35,-0.55,8.62,0.06,0.06,0.01
7:07:58 PM,-0.74,-0.58,8.70,0.02,0.08,0.01
7:07:58 PM,-0.55,-0.58,8.67,0.02,-0.02,0.01
7:07:58 PM,-0.55,-0.65,8.66,0.02,-0.05,0.01
7:07:58 PM,-1.06,-0.59,8.68,-0.01,-0.12,0.01
7:07:58 PM,-1.16,-0.61,8.61,-0.00,-0.14,0.01
7:07:58 PM,-1.13,-0.61,8.62,0.00,-0.03,0.01
7:07:58 PM,-0.96,-0.72,8.76,0.00,-0.05,0.01
7:07:58 PM,-0.69,-0.60,8.66,0.00,-0.06,0.01
7:07:58 PM,-0.50,-0.68,8.67,-0.01,-0.05,0.01
7:07:59 PM,-0.67,-0.65,8.69,-0.00,-0.05,0.01
7:07:59 PM,-0.84,-0.66,8.66,0.01,0.00,0.01
7:07:59 PM,-0.88,-0.62,8.62,0.02,-0.02,0.01
7:07:59 PM,-0.63,-0.65,8.68,0.01,-0.01,0.01
7:07:59 PM,-0.62,-0.64,8.70,0.00,-0.06,0.01
7:07:59 PM,-0.86,-0.61,8.64,0.01,-0.02,0.01
7:07:59 PM,-0.80,-0.59,8.65,0.01,0.04,0.01
7:07:59 PM,-0.67,-0.61,8.65,0.01,-0.01,0.01
7:07:59 PM,-0.35,-0.67,8.68,0.00,-0.05,0.01
7:07:59 PM,-0.64,-0.65,8.65,-0.00,-0.09,0.01
7:08:00 PM,-0.79,-0.66,8.63,0.01,-0.08,0.01
7:08:00 PM,-0.68,-0.54,8.62,0.00,-0.07,0.01
7:08:00 PM,-0.64,-0.63,8.70,0.02,-0.04,0.01
7:08:00 PM,-0.89,-0.60,8.70,-0.01,-0.04,0.01
7:08:00 PM,-0.83,-0.60,8.65,0.01,0.03,0.01
7:08:00 PM,-0.65,-0.62,8.62,0.05,0.05,0.01
7:08:00 PM,-0.58,-0.69,8.66,0.00,-0.02,0.01
7:08:00 PM,-0.79,-0.58,8.63,0.00,-0.01,0.01
7:08:00 PM,-0.85,-0.56,8.58,0.03,-0.02,0.01
7:08:01 PM,-1.16,-0.57,8.66,0.03,0.04,0.01
7:08:01 PM,-0.92,-0.56,8.60,0.01,0.01,0.01
7:08:01 PM,-0.55,-0.71,8.67,0.01,-0.02,0.01
7:08:01 PM,-0.53,-0.67,8.62,0.01,-0.08,0.01
7:08:01 PM,-0.78,-0.74,8.69,0.01,-0.07,0.01
7:08:01 PM,-0.87,-0.67,8.65,0.01,-0.02,0.01
7:08:01 PM,-0.78,-0.63,8.67,0.02,-0.05,0.01
7:08:01 PM,-0.66,-0.62,8.71,0.01,-0.05,0.01
7:08:01 PM,-0.70,-0.62,8.67,0.01,-0.01,0.01
7:08:01 PM,-0.76,-0.63,8.66,0.00,0.00,0.01
7:08:02 PM,-0.74,-0.60,8.63,0.01,-0.02,0.01
7:08:02 PM,-0.63,-0.61,8.67,0.02,0.03,0.01
7:08:02 PM,-0.72,-0.57,8.71,0.02,-0.00,0.01
7:08:02 PM,-0.79,-0.59,8.68,0.01,-0.01,0.01
7:08:02 PM,-0.67,-0.60,8.67,-0.01,-0.03,0.01
7:08:02 PM,-0.63,-0.68,8.72,0.02,-0.03,0.01
7:08:02 PM,-0.63,-0.68,8.68,0.01,-0.03,0.01
7:08:02 PM,-0.46,-0.74,8.66,-0.00,-0.07,0.01
7:08:02 PM,-0.62,-0.68,8.67,-0.00,-0.07,0.01
7:08:03 PM,-0.58,-0.72,8.68,0.00,-0.05,0.01
7:08:03 PM,-0.72,-0.66,8.64,0.02,0.00,0.01
7:08:03 PM,-0.69,-0.68,8.66,0.02,-0.01,0.01
7:08:03 PM,-0.61,-0.63,8.67,0.01,-0.02,0.01
7:08:03 PM,-0.67,-0.60,8.67,0.01,-0.03,0.01
7:08:03 PM,-0.85,-0.62,8.66,-0.01,-0.02,0.01
7:08:03 PM,-0.77,-0.69,8.65,0.01,-0.02,0.01
7:08:03 PM,-0.81,-0.66,8.67,0.03,0.01,0.01
7:08:03 PM,-0.74,-0.64,8.65,0.01,-0.00,0.01
7:08:03 PM,-0.79,-0.64,8.69,0.02,0.02,0.01
7:08:04 PM,-0.83,-0.61,8.65,0.02,0.04,0.01
7:08:04 PM,-0.83,-0.62,8.65,-0.00,-0.06,0.01
7:08:04 PM,-0.72,-0.65,8.66,0.01,-0.07,0.01
7:08:04 PM,-0.68,-0.66,8.68,0.00,-0.02,0.01
7:08:04 PM,-0.77,-0.64,8.66,0.00,-0.02,0.01
7:08:04 PM,-0.75,-0.69,8.65,0.00,-0.04,0.01
7:08:04 PM,-0.66,-0.66,8.67,0.02,0.01,0.01
7:08:04 PM,-0.75,-0.66,8.63,0.02,-0.01,0.01
7:08:04 PM,-0.68,-0.68,8.68,0.00,-0.04,0.01
7:08:05 PM,-0.71,-0.64,8.67,-0.00,-0.04,0.01
7:08:05 PM,-0.62,-0.68,8.71,0.01,-0.01,0.01
7:08:05 PM,-0.77,-0.65,8.64,0.00,-0.05,0.01
7:08:05 PM,-0.61,-0.66,8.65,0.01,-0.02,0.01
7:08:05 PM,-0.68,-0.67,8.65,0.03,0.01,0.01
7:08:05 PM,-0.82,-0.63,8.65,0.00,-0.02,0.01
7:08:05 PM,-0.74,-0.67,8.66,-0.01,-0.04,0.01
7:08:05 PM,-0.71,-0.66,8.65,-0.00,-0.03,0.01
7:08:05 PM,-0.74,-0.62,8.69,0.00,-0.00,0.01
7:08:06 PM,-0.71,-0.63,8.66,0.01,-0.03,0.01
7:08:06 PM,-0.68,-0.67,8.70,0.02,-0.00,0.01
7:08:06 PM,-0.75,-0.66,8.64,0.02,0.01,0.01
7:08:06 PM,-0.56,-0.68,8.65,0.02,-0.01,0.01
7:08:06 PM,-0.64,-0.68,8.68,0.03,-0.01,0.01
7:08:06 PM,-0.55,-0.67,8.66,0.01,0.00,0.01
7:08:06 PM,-0.82,-0.63,8.65,0.00,-0.06,0.01
7:08:06 PM,-0.58,-0.70,8.68,0.01,-0.03,0.01
7:08:06 PM,-0.70,-0.68,8.63,0.01,-0.03,0.01
7:08:06 PM,-0.70,-0.68,8.67,0.00,-0.02,0.01
7:08:07 PM,-0.60,-0.71,8.64,0.02,0.08,0.01
7:08:07 PM,-0.83,-0.64,8.65,0.01,0.01,0.01
7:08:07 PM,-0.71,-0.66,8.67,0.02,-0.02,0.01
7:08:07 PM,-0.82,-0.63,8.66,-0.00,-0.06,0.01
7:08:07 PM,-0.83,-0.64,8.68,0.02,0.03,0.01
7:08:07 PM,-0.85,-0.59,8.67,0.01,-0.01,0.01
7:08:07 PM,-0.56,-0.66,8.67,0.02,0.01,0.01
7:08:07 PM,-0.57,-0.66,8.65,0.02,0.02,0.01
7:08:07 PM,-0.62,-0.65,8.63,0.02,-0.03,0.01
7:08:08 PM,-0.70,-0.67,8.66,-0.00,-0.04,0.01
7:08:08 PM,-0.82,-0.62,8.63,0.01,-0.01,0.01
7:08:08 PM,-0.69,-0.65,8.73,0.01,-0.04,0.01
7:08:08 PM,-0.75,-0.66,8.67,-0.00,-0.08,0.01
7:08:08 PM,-0.81,-0.66,8.68,0.01,-0.00,0.01
7:08:08 PM,-0.71,-0.62,8.69,0.03,0.03,0.01
7:08:08 PM,-0.55,-0.64,8.67,0.01,-0.04,0.01
7:08:08 PM,-0.62,-0.68,8.67,-0.01,-0.05,0.01
7:08:08 PM,-0.82,-0.68,8.65,0.02,0.01,0.01
7:08:08 PM,-0.89,-0.62,8.64,0.03,0.04,0.01
7:08:09 PM,-0.72,-0.61,8.68,0.02,0.03,0.01
7:08:09 PM,-0.62,-0.64,8.72,0.00,-0.04,0.01
7:08:09 PM,-0.63,-0.66,8.68,0.01,-0.03,0.01
7:08:09 PM,-0.75,-0.66,8.67,0.01,-0.05,0.01
7:08:09 PM,-0.89,-0.60,8.62,-0.00,-0.04,0.01
7:08:09 PM,-0.74,-0.63,8.67,0.02,-0.00,0.01
7:08:09 PM,-0.70,-0.63,8.66,0.02,0.01,0.01
7:08:09 PM,-0.74,-0.62,8.71,0.02,0.00,0.01
7:08:09 PM,-0.78,-0.62,8.64,0.02,-0.01,0.01
7:08:10 PM,-0.85,-0.62,8.66,0.01,-0.01,0.01
7:08:10 PM,-0.82,-0.61,8.67,0.01,-0.04,0.01
7:08:10 PM,-0.78,-0.59,8.70,0.03,0.03,0.01
7:08:10 PM,-0.84,-0.55,8.70,0.03,0.01,0.01
7:08:10 PM,-0.79,-0.59,8.66,0.02,0.01,0.01
7:08:10 PM,-0.72,-0.60,8.69,0.00,-0.03,0.01
7:08:10 PM,-0.75,-0.62,8.65,0.01,0.01,0.01
7:08:10 PM,-0.68,-0.70,8.62,-0.01,-0.02,0.01
7:08:10 PM,-0.64,-0.63,8.64,-0.03,-0.09,0.01
7:08:10 PM,-0.45,-0.73,8.65,0.01,0.00,0.01
7:08:11 PM,-0.64,-0.68,8.68,0.03,0.06,0.01
7:08:11 PM,-0.82,-0.66,8.66,0.00,-0.04,0.01
7:08:11 PM,-0.72,-0.58,8.74,0.03,0.05,0.01
7:08:11 PM,-0.80,-0.66,8.63,0.02,0.01,0.01
7:08:11 PM,-0.75,-0.68,8.61,0.01,-0.01,0.01
7:08:11 PM,-0.80,-0.62,8.64,0.01,-0.06,0.01
7:08:11 PM,-0.78,-0.64,8.69,0.01,-0.01,0.01
7:08:11 PM,-0.42,-0.71,8.68,0.01,0.01,0.01
7:08:11 PM,-0.39,-0.69,8.66,0.04,0.08,0.01
7:08:12 PM,-0.59,-0.67,8.66,0.00,-0.05,0.01
7:08:12 PM,-0.45,-0.68,8.65,0.01,-0.04,0.01
7:08:12 PM,-0.61,-0.68,8.64,0.01,-0.07,0.01
7:08:12 PM,-0.68,-0.68,8.66,-0.00,-0.07,0.01
7:08:12 PM,-0.69,-0.68,8.66,-0.00,-0.05,0.01
7:08:12 PM,-0.69,-0.67,8.71,0.02,-0.06,0.01
7:08:12 PM,-0.86,-0.60,8.67,0.02,0.00,0.01
7:08:12 PM,-0.61,-0.70,8.65,0.02,-0.02,0.01
7:08:12 PM,-0.59,-0.64,8.71,0.01,0.01,0.01
7:08:12 PM,-0.74,-0.65,8.68,0.02,0.02,0.01
7:08:13 PM,-0.87,-0.63,8.60,0.01,-0.06,0.01
7:08:13 PM,-0.87,-0.65,8.62,0.01,-0.02,0.01
7:08:13 PM,-0.73,-0.70,8.64,0.02,0.03,0.01
7:08:13 PM,-0.58,-0.68,8.66,0.04,0.09,0.01
7:08:13 PM,-0.55,-0.65,8.68,0.02,0.02,0.01
7:08:13 PM,-0.61,-0.67,8.67,-0.00,-0.03,0.01
7:08:13 PM,-0.66,-0.68,8.63,-0.01,-0.05,0.01
7:08:13 PM,-0.79,-0.69,8.64,0.01,-0.02,0.01
7:08:13 PM,-0.68,-0.70,8.67,0.01,-0.02,0.01
7:08:14 PM,-0.72,-0.68,8.69,0.01,-0.02,0.01
7:08:14 PM,-0.65,-0.69,8.67,0.00,-0.05,0.01
7:08:14 PM,-0.67,-0.69,8.62,0.01,-0.00,0.01
7:08:14 PM,-0.79,-0.66,8.63,0.01,-0.03,0.01
7:08:14 PM,-0.63,-0.71,8.68,0.01,-0.02,0.01
7:08:14 PM,-0.86,-0.62,8.62,0.02,0.00,0.01
7:08:14 PM,-0.74,-0.64,8.66,-0.00,-0.02,0.01
7:08:14 PM,-0.71,-0.68,8.65,0.01,-0.01,0.01
7:08:14 PM,-0.71,-0.67,8.66,-0.00,-0.06,0.01
7:08:14 PM,-0.66,-0.72,8.61,0.00,-0.04,0.01
7:08:15 PM,-0.58,-0.72,8.65,0.01,-0.02,0.01
7:08:15 PM,-0.89,-0.65,8.62,0.01,-0.02,0.01
7:08:15 PM,-0.83,-0.67,8.69,0.02,0.03,0.01
7:08:15 PM,-0.78,-0.67,8.66,0.01,0.00,0.01
7:08:15 PM,-0.82,-0.66,8.62,0.01,-0.03,0.01
7:08:15 PM,-0.77,-0.71,8.63,0.01,-0.05,0.01
7:08:15 PM,-0.85,-0.66,8.66,0.01,-0.04,0.01
7:08:15 PM,-0.83,-0.68,8.61,0.00,-0.01,0.01
7:08:15 PM,-0.85,-0.66,8.62,0.01,-0.02,0.01
7:08:16 PM,-0.61,-0.69,8.70,0.02,0.01,0.01
7:08:16 PM,-0.64,-0.71,8.65,0.01,-0.04,0.01
7:08:16 PM,-0.71,-0.68,8.68,0.03,0.03,0.01
7:08:16 PM,-0.72,-0.69,8.66,0.02,0.02,0.01
7:08:16 PM,-0.74,-0.67,8.65,0.02,0.02,0.01
7:08:16 PM,-0.77,-0.69,8.60,0.01,-0.03,0.01
7:08:16 PM,-0.65,-0.75,8.65,0.02,0.02,0.01
7:08:16 PM,-0.64,-0.73,8.66,0.03,0.03,0.01
7:08:16 PM,-0.78,-0.63,8.69,0.01,-0.04,0.01
7:08:17 PM,-0.76,-0.62,8.69,0.00,-0.03,0.01
7:08:17 PM,-0.80,-0.67,8.67,-0.00,-0.07,0.01
7:08:17 PM,-0.73,-0.66,8.64,0.01,-0.04,0.01
7:08:17 PM,-0.57,-0.72,8.67,0.02,0.01,0.01
7:08:17 PM,-0.64,-0.70,8.66,0.07,0.07,0.01
7:08:17 PM,-0.65,-0.70,8.53,0.02,0.02,0.01
7:08:17 PM,-0.26,-0.82,8.63,0.04,0.00,0.01
7:08:17 PM,-0.52,-0.68,8.67,0.01,-0.03,0.01
7:08:17 PM,-0.57,-0.67,8.66,0.00,-0.02,0.01
7:08:17 PM,-0.61,-0.64,8.65,0.02,0.01,0.01
7:08:18 PM,-0.47,-0.68,8.69,0.01,-0.01,0.01
7:08:18 PM,-0.54,-0.69,8.66,0.01,-0.01,0.01
7:08:18 PM,-0.56,-0.68,8.63,0.01,-0.02,0.01
7:08:18 PM,-0.61,-0.64,8.63,0.01,-0.02,0.01
7:08:18 PM,-0.63,-0.62,8.66,0.00,-0.06,0.01
7:08:18 PM,-0.67,-0.65,8.66,-0.00,-0.05,0.01
7:08:18 PM,-0.53,-0.66,8.66,0.00,-0.04,0.01
7:08:18 PM,-0.55,-0.69,8.66,0.00,-0.01,0.01
7:08:18 PM,-0.64,-0.71,8.63,0.01,0.01,0.01
7:08:19 PM,-0.51,-0.73,8.69,0.02,0.04,0.01
7:08:19 PM,-0.72,-0.67,8.64,0.01,-0.05,0.01
7:08:19 PM,-0.66,-0.67,8.66,0.01,0.01,0.01
7:08:19 PM,-0.56,-0.72,8.64,0.01,0.01,0.01
7:08:19 PM,-0.67,-0.66,8.66,0.00,-0.01,0.01
7:08:19 PM,-0.78,-0.64,8.62,0.01,-0.04,0.01
7:08:19 PM,-0.64,-0.67,8.69,0.02,-0.02,0.01
7:08:19 PM,-0.46,-0.72,8.64,0.02,0.02,0.01
7:08:19 PM,-0.53,-0.66,8.67,0.01,0.01,0.01
7:08:19 PM,-0.61,-0.68,8.67,0.01,-0.01,0.01
7:08:20 PM,-0.59,-0.67,8.70,0.01,-0.01,0.01
7:08:20 PM,-0.48,-0.70,8.66,0.02,-0.02,0.01
7:08:20 PM,-0.52,-0.70,8.66,0.01,-0.02,0.01
7:08:20 PM,-0.53,-0.70,8.65,0.01,-0.00,0.01
7:08:20 PM,-0.59,-0.73,8.63,0.00,-0.05,0.01
7:08:20 PM,-0.65,-0.69,8.64,0.01,0.01,0.01
7:08:20 PM,-0.58,-0.71,8.66,0.02,0.01,0.01
7:08:20 PM,-0.61,-0.69,8.67,0.02,-0.01,0.01
7:08:20 PM,-0.69,-0.61,8.68,-0.00,-0.03,0.01
7:08:21 PM,-0.64,-0.71,8.67,0.03,-0.02,0.01
7:08:21 PM,-0.63,-0.69,8.65,0.02,-0.01,0.01
7:08:21 PM,-0.51,-0.69,8.67,-0.00,-0.02,0.01
7:08:21 PM,-0.37,-0.73,8.65,0.02,-0.04,0.01
7:08:21 PM,-0.48,-0.68,8.65,0.02,0.01,0.01
7:08:21 PM,-0.52,-0.71,8.62,0.02,0.02,0.01
7:08:21 PM,-0.42,-0.72,8.67,0.03,0.01,0.01
7:08:21 PM,-0.52,-0.71,8.67,0.02,0.02,0.01
7:08:21 PM,-0.47,-0.74,8.66,0.02,-0.00,0.01
7:08:21 PM,-0.52,-0.69,8.66,0.02,0.01,0.01
7:08:22 PM,-0.51,-0.69,8.68,0.02,0.03,0.01
7:08:22 PM,-0.57,-0.67,8.67,0.03,0.04,0.01
7:08:22 PM,-0.54,-0.69,8.62,0.01,-0.05,0.01
7:08:22 PM,-0.46,-0.74,8.66,0.01,-0.00,0.01
7:08:22 PM,-0.67,-0.69,8.60,0.01,-0.01,0.01
7:08:22 PM,-0.42,-0.72,8.74,0.02,-0.01,0.01
7:08:22 PM,-0.78,-0.63,8.67,0.01,-0.01,0.01
7:08:22 PM,-0.49,-0.70,8.66,0.01,-0.03,0.01
7:08:22 PM,-0.60,-0.68,8.69,0.02,-0.03,0.01
7:08:23 PM,-0.56,-0.71,8.61,0.02,0.01,0.01
7:08:23 PM,-0.63,-0.67,8.58,-0.00,-0.05,0.01
7:08:23 PM,-0.40,-0.75,8.68,0.01,-0.03,0.01
7:08:23 PM,-0.54,-0.71,8.69,0.02,-0.01,0.01
7:08:23 PM,-0.53,-0.72,8.70,0.01,-0.02,0.01
7:08:23 PM,-0.63,-0.67,8.65,0.02,0.01,0.01
7:08:23 PM,-0.60,-0.65,8.67,0.02,-0.04,0.01
7:08:23 PM,-0.66,-0.65,8.63,-0.01,-0.02,0.01
7:08:23 PM,-0.52,-0.67,8.67,-0.00,-0.05,0.01
7:08:23 PM,-0.39,-0.69,8.65,0.01,-0.04,0.01
7:08:24 PM,-0.55,-0.71,8.70,0.01,-0.04,0.01
7:08:24 PM,-0.52,-0.73,8.66,0.00,-0.05,0.01
7:08:24 PM,-0.61,-0.69,8.63,0.01,0.01,0.01
7:08:24 PM,-0.64,-0.63,8.65,0.02,0.04,0.01
7:08:24 PM,-0.55,-0.67,8.67,0.01,-0.02,0.01
7:08:24 PM,-0.60,-0.65,8.66,0.00,-0.04,0.01
7:08:24 PM,-0.53,-0.72,8.68,0.01,0.00,0.01
7:08:24 PM,-0.64,-0.66,8.69,0.02,-0.01,0.01
7:08:24 PM,-0.62,-0.68,8.65,0.02,-0.00,0.01
7:08:25 PM,-0.70,-0.63,8.68,0.01,-0.02,0.01
7:08:25 PM,-0.67,-0.67,8.66,0.00,-0.04,0.01
7:08:25 PM,-0.58,-0.71,8.66,0.01,-0.03,0.01
7:08:25 PM,-0.59,-0.68,8.63,-0.00,-0.04,0.01
7:08:25 PM,-0.61,-0.69,8.67,0.02,0.01,0.01
7:08:25 PM,-0.72,-0.67,8.65,0.02,0.03,0.01
7:08:25 PM,-0.58,-0.71,8.68,0.02,0.01,0.01
7:08:25 PM,-0.66,-0.67,8.66,0.02,0.01,0.01
7:08:25 PM,-0.62,-0.69,8.64,0.01,-0.03,0.01
7:08:25 PM,-0.57,-0.67,8.66,-0.00,-0.07,0.01
7:08:26 PM,-0.65,-0.69,8.67,0.02,-0.02,0.01
7:08:26 PM,-0.70,-0.67,8.62,0.01,-0.01,0.01
7:08:26 PM,-0.69,-0.68,8.65,0.01,-0.02,0.01
7:08:26 PM,-0.64,-0.69,8.65,0.01,-0.04,0.01
7:08:26 PM,-0.59,-0.68,8.66,-0.01,-0.03,0.01
7:08:26 PM,-0.53,-0.68,8.67,-0.00,-0.04,0.01
7:08:26 PM,-0.49,-0.70,8.66,0.01,-0.02,0.01
7:08:26 PM,-0.67,-0.68,8.64,0.01,-0.01,0.01
7:08:26 PM,-0.68,-0.68,8.61,0.01,-0.01,0.01
7:08:27 PM,-0.69,-0.69,8.64,0.02,0.02,0.01
7:08:27 PM,-0.73,-0.65,8.64,0.02,0.01,0.01
7:08:27 PM,-0.55,-0.69,8.66,0.00,-0.01,0.01
7:08:27 PM,-0.60,-0.69,8.65,0.02,0.02,0.01
7:08:27 PM,-0.63,-0.66,8.68,0.02,0.01,0.01
7:08:27 PM,-0.74,-0.66,8.70,0.02,0.01,0.01
7:08:27 PM,-0.80,-0.66,8.64,0.01,-0.03,0.01
7:08:27 PM,-0.73,-0.69,8.61,0.01,-0.02,0.01
7:08:27 PM,-0.66,-0.69,8.65,0.01,-0.01,0.01
7:08:27 PM,-0.64,-0.69,8.68,0.00,-0.04,0.01
7:08:28 PM,-0.65,-0.64,8.66,0.01,-0.02,0.01
7:08:28 PM,-0.61,-0.67,8.67,0.01,-0.01,0.01
7:08:28 PM,-0.57,-0.72,8.61,0.03,-0.05,0.01
7:08:28 PM,-0.70,-0.68,8.65,0.02,-0.03,0.01
7:08:28 PM,-0.53,-0.72,8.66,0.00,-0.04,0.01
7:08:28 PM,-0.57,-0.69,8.68,0.01,-0.02,0.01
7:08:28 PM,-0.71,-0.64,8.62,0.01,-0.03,0.01
7:08:28 PM,-0.76,-0.64,8.66,0.01,-0.02,0.01
7:08:28 PM,-0.72,-0.63,8.67,0.02,-0.01,0.01
7:08:29 PM,-0.69,-0.67,8.67,0.01,-0.03,0.01
7:08:29 PM,-0.78,-0.64,8.64,0.01,0.00,0.01
7:08:29 PM,-0.76,-0.61,8.65,-0.00,-0.07,0.01
7:08:29 PM,-0.77,-0.66,8.67,0.01,-0.05,0.01
7:08:29 PM,-0.67,-0.70,8.64,0.01,-0.00,0.01
7:08:29 PM,-0.73,-0.63,8.64,0.00,-0.00,0.01
7:08:29 PM,-0.76,-0.62,8.66,0.00,0.01,0.01
7:08:29 PM,-0.70,-0.68,8.62,0.01,-0.02,0.01
7:08:29 PM,-0.63,-0.69,8.66,0.01,-0.02,0.01
7:08:30 PM,-0.61,-0.67,8.67,0.00,-0.03,0.01
7:08:30 PM,-0.72,-0.64,8.69,0.02,-0.00,0.01
7:08:30 PM,-0.71,-0.63,8.65,0.01,-0.02,0.01
7:08:30 PM,-0.70,-0.65,8.62,0.00,-0.02,0.01
7:08:30 PM,-0.55,-0.67,8.68,0.02,-0.00,0.01
7:08:30 PM,-0.66,-0.66,8.66,0.00,0.02,0.01
7:08:30 PM,-0.61,-0.65,8.67,0.01,-0.01,0.01
7:08:30 PM,-0.58,-0.66,8.64,0.01,-0.03,0.01
7:08:30 PM,-0.66,-0.67,8.63,0.01,-0.03,0.01
7:08:30 PM,-0.64,-0.69,8.65,0.01,-0.02,0.01
7:08:31 PM,-0.74,-0.63,8.63,0.01,-0.01,0.01
7:08:31 PM,-0.69,-0.69,8.66,0.02,-0.00,0.01
7:08:31 PM,-0.69,-0.67,8.66,0.01,0.00,0.01
7:08:31 PM,-0.65,-0.66,8.66,0.00,-0.03,0.01
7:08:31 PM,-0.65,-0.65,8.66,0.00,-0.01,0.01
7:08:31 PM,-0.66,-0.65,8.64,0.00,-0.02,0.01
7:08:31 PM,-0.68,-0.68,8.68,0.00,-0.03,0.01
7:08:31 PM,-0.78,-0.64,8.67,0.01,-0.03,0.01
7:08:31 PM,-0.65,-0.68,8.67,0.01,-0.03,0.01
7:08:32 PM,-0.66,-0.68,8.64,0.00,-0.03,0.01
7:08:32 PM,-0.53,-0.67,8.69,0.01,-0.02,0.01
7:08:32 PM,-0.58,-0.66,8.66,0.01,-0.00,0.01
7:08:32 PM,-0.61,-0.65,8.64,0.01,-0.03,0.01
7:08:32 PM,-0.66,-0.66,8.70,0.01,-0.03,0.01
7:08:32 PM,-0.60,-0.68,8.68,0.01,-0.02,0.01
7:08:32 PM,-0.64,-0.67,8.67,0.01,0.01,0.01
7:08:32 PM,-0.57,-0.67,8.68,0.02,-0.01,0.01
7:08:32 PM,-0.54,-0.69,8.68,0.02,-0.01,0.01
7:08:32 PM,-0.70,-0.67,8.64,0.00,-0.02,0.01
7:08:33 PM,-0.64,-0.67,8.64,0.01,-0.03,0.01
7:08:33 PM,-0.71,-0.66,8.66,0.03,0.01,0.01
7:08:33 PM,-0.58,-0.68,8.68,0.02,0.02,0.01
7:08:33 PM,-0.68,-0.64,8.67,0.02,0.03,0.01
7:08:33 PM,-0.70,-0.64,8.67,0.01,-0.02,0.01
7:08:33 PM,-0.56,-0.68,8.67,0.00,-0.05,0.01
7:08:33 PM,-0.63,-0.71,8.69,0.02,0.00,0.01
7:08:33 PM,-0.75,-0.67,8.64,0.01,-0.02,0.01
7:08:33 PM,-0.80,-0.69,8.61,0.00,-0.08,0.01
7:08:34 PM,-0.80,-0.67,8.63,0.01,-0.07,0.01
7:08:34 PM,-0.80,-0.70,8.64,0.01,-0.01,0.01
7:08:34 PM,-0.81,-0.64,8.68,0.03,0.04,0.01
7:08:34 PM,-0.74,-0.63,8.65,0.02,0.02,0.01
7:08:34 PM,-0.67,-0.60,8.64,0.02,-0.01,0.01
7:08:34 PM,-0.82,-0.63,8.67,0.01,-0.01,0.01
7:08:34 PM,-0.74,-0.67,8.69,0.02,0.00,0.01
7:08:34 PM,-0.82,-0.61,8.66,0.02,0.03,0.01
7:08:34 PM,-0.71,-0.64,8.66,0.02,-0.03,0.01
7:08:34 PM,-0.63,-0.67,8.64,0.01,-0.02,0.01
7:08:35 PM,-0.66,-0.68,8.68,0.01,-0.04,0.01
7:08:35 PM,-0.63,-0.68,8.65,0.01,-0.04,0.01
7:08:35 PM,-0.68,-0.67,8.65,0.00,-0.03,0.01
7:08:35 PM,-0.64,-0.67,8.64,0.01,0.01,0.01
7:08:35 PM,-0.56,-0.66,8.66,0.01,-0.00,0.01
7:08:35 PM,-0.62,-0.66,8.63,0.01,0.00,0.01
7:08:35 PM,-0.73,-0.67,8.64,0.02,-0.01,0.01
7:08:35 PM,-0.69,-0.69,8.71,0.00,-0.02,0.01
7:08:35 PM,-0.63,-0.65,8.64,0.00,-0.02,0.01
7:08:36 PM,-0.56,-0.68,8.67,0.00,-0.06,0.01
7:08:36 PM,-0.52,-0.70,8.64,-0.01,-0.07,0.01
7:08:36 PM,-0.66,-0.70,8.64,0.02,0.01,0.01
7:08:36 PM,-0.68,-0.67,8.67,0.02,0.04,0.01
7:08:36 PM,-0.54,-0.65,8.66,0.02,-0.01,0.01
7:08:36 PM,-0.61,-0.63,8.66,0.00,-0.05,0.01
7:08:36 PM,-0.69,-0.66,8.63,0.00,-0.04,0.01
7:08:36 PM,-0.60,-0.68,8.65,0.01,-0.01,0.01
7:08:36 PM,-0.57,-0.65,8.70,0.01,-0.01,0.01
7:08:36 PM,-0.64,-0.64,8.66,0.01,-0.02,0.01
7:08:37 PM,-0.63,-0.68,8.65,0.01,-0.01,0.01
7:08:37 PM,-0.68,-0.64,8.64,0.02,0.00,0.01
7:08:37 PM,-0.68,-0.67,8.67,0.01,-0.04,0.01
7:08:37 PM,-0.68,-0.65,8.68,0.01,-0.03,0.01
7:08:37 PM,-0.69,-0.66,8.65,0.00,0.02,0.01
7:08:37 PM,-0.69,-0.66,8.63,0.02,0.02,0.01
7:08:37 PM,-0.58,-0.68,8.65,0.01,-0.01,0.01
7:08:37 PM,-0.62,-0.68,8.68,0.01,-0.05,0.01
7:08:37 PM,-0.72,-0.66,8.67,-0.00,-0.05,0.01
7:08:38 PM,-0.81,-0.67,8.61,0.01,-0.03,0.01
7:08:38 PM,-0.54,-0.68,8.68,0.02,-0.02,0.01
7:08:38 PM,-0.52,-0.65,8.69,0.02,-0.03,0.01
7:08:38 PM,-0.48,-0.68,8.68,0.00,-0.06,0.01
7:08:38 PM,-0.64,-0.65,8.68,0.02,0.02,0.01
7:08:38 PM,-0.78,-0.62,8.66,-0.01,-0.08,0.01
7:08:38 PM,-0.65,-0.67,8.64,-0.01,-0.05,0.01
7:08:38 PM,-0.64,-0.64,8.66,0.01,-0.01,0.01
7:08:38 PM,-0.46,-0.67,8.62,0.02,-0.05,0.01
7:08:38 PM,-0.51,-0.59,8.70,-0.00,-0.07,0.01
7:08:39 PM,-0.51,-0.61,8.66,-0.02,-0.10,0.01
7:08:39 PM,-0.94,-0.63,8.57,0.06,0.09,0.01
7:08:39 PM,-0.80,-0.60,8.65,0.01,0.01,0.01
7:08:39 PM,-0.49,-0.64,8.72,0.06,0.15,0.01
7:08:39 PM,-0.74,-0.56,8.69,0.03,0.04,0.01
7:08:39 PM,-0.50,-0.58,8.70,-0.01,-0.09,0.01
7:08:39 PM,-0.47,-0.60,8.66,-0.01,-0.07,0.01
7:08:39 PM,-0.79,-0.62,8.65,-0.01,-0.03,0.01
7:08:39 PM,-0.69,-0.68,8.59,0.02,0.07,0.01
7:08:40 PM,-1.10,-0.40,8.63,0.06,0.18,0.01
7:08:40 PM,-1.43,-0.61,8.54,-0.01,-0.09,0.01
7:08:40 PM,-1.24,-0.57,8.59,-0.01,-0.08,0.01
7:08:40 PM,-0.92,-0.60,8.64,0.01,0.07,0.01
7:08:40 PM,-0.90,-0.52,8.77,0.01,0.02,0.01
7:08:40 PM,-1.18,-0.45,8.67,0.00,0.02,0.01
7:08:40 PM,-1.13,-0.55,8.62,0.02,0.03,0.01
7:08:40 PM,-1.13,-0.52,8.69,0.03,0.10,0.01
7:08:40 PM,-1.26,-0.52,8.68,0.01,0.02,0.01
7:08:41 PM,-1.12,-0.57,8.64,0.02,0.06,0.01
7:08:41 PM,-0.98,-0.58,8.67,0.02,0.01,0.01
7:08:41 PM,-0.81,-0.57,8.71,0.02,-0.01,0.01
7:08:41 PM,-0.69,-0.63,8.67,0.01,0.02,0.01
7:08:41 PM,-0.70,-0.63,8.65,-0.01,-0.08,0.01
7:08:41 PM,-0.86,-0.61,8.69,0.01,0.01,0.01
7:08:41 PM,-0.93,-0.57,8.67,0.00,0.04,0.01
7:08:41 PM,-0.72,-0.57,8.70,0.02,0.05,0.01
7:08:41 PM,-0.89,-0.57,8.67,0.00,-0.00,0.01
7:08:41 PM,-1.01,-0.53,8.68,-0.01,-0.03,0.01
7:08:42 PM,-1.20,-0.52,8.66,0.02,0.03,0.01
7:08:42 PM,-0.89,-0.60,8.66,0.02,0.01,0.01
7:08:42 PM,-0.74,-0.63,8.69,0.02,-0.03,0.01
7:08:42 PM,-1.13,-0.57,8.63,0.01,-0.05,0.01
7:08:42 PM,-1.13,-0.55,8.64,0.01,-0.04,0.01
7:08:42 PM,-0.95,-0.58,8.62,0.00,-0.02,0.01
7:08:42 PM,-0.89,-0.57,8.67,0.01,-0.02,0.01
7:08:42 PM,-0.94,-0.59,8.70,0.02,0.01,0.01
7:08:42 PM,-0.87,-0.60,8.66,0.01,-0.05,0.01
7:08:43 PM,-1.03,-0.60,8.67,0.00,-0.03,0.01
7:08:43 PM,-0.86,-0.59,8.68,0.01,-0.04,0.01
7:08:43 PM,-0.82,-0.53,8.69,0.01,-0.10,0.01
7:08:43 PM,-0.93,-0.57,8.66,0.01,0.00,0.01
7:08:43 PM,-0.99,-0.57,8.68,0.02,0.02,0.01
7:08:43 PM,-1.07,-0.54,8.68,0.01,-0.01,0.01
7:08:43 PM,-0.85,-0.57,8.67,0.01,-0.01,0.01
7:08:43 PM,-0.94,-0.57,8.69,0.02,0.02,0.01
7:08:43 PM,-0.83,-0.56,8.68,0.02,-0.01,0.01
7:08:43 PM,-0.84,-0.57,8.69,0.01,-0.03,0.01
7:08:44 PM,-0.97,-0.57,8.70,0.02,-0.01,0.01
7:08:44 PM,-1.07,-0.55,8.67,0.01,-0.03,0.01
7:08:44 PM,-0.85,-0.58,8.70,0.01,-0.03,0.01
7:08:44 PM,-0.91,-0.61,8.67,0.01,-0.02,0.01
7:08:44 PM,-0.95,-0.59,8.63,0.01,-0.01,0.01
7:08:44 PM,-0.94,-0.61,8.68,0.02,-0.01,0.01
7:08:44 PM,-0.98,-0.57,8.64,0.00,-0.05,0.01
7:08:44 PM,-0.99,-0.60,8.68,0.01,-0.07,0.01
7:08:44 PM,-1.05,-0.53,8.64,-0.00,-0.04,0.01
7:08:45 PM,-0.95,-0.58,8.67,0.01,-0.03,0.01
7:08:45 PM,-0.87,-0.59,8.67,-0.01,-0.08,0.01
7:08:45 PM,-0.74,-0.66,8.67,-0.00,-0.07,0.01
7:08:45 PM,-0.81,-0.66,8.65,0.01,-0.06,0.01
7:08:45 PM,-0.77,-0.66,8.64,0.00,-0.02,0.01
7:08:45 PM,-0.75,-0.62,8.64,0.02,0.01,0.01
7:08:45 PM,-0.85,-0.59,8.69,0.01,0.00,0.01
7:08:45 PM,-0.85,-0.64,8.65,0.02,0.01,0.01
7:08:45 PM,-0.81,-0.62,8.67,-0.00,-0.03,0.01
7:08:45 PM,-0.94,-0.57,8.64,0.00,-0.02,0.01
7:08:46 PM,-1.00,-0.59,8.63,-0.01,-0.09,0.01
7:08:46 PM,-0.99,-0.65,8.63,0.02,-0.01,0.01
7:08:46 PM,-0.91,-0.60,8.69,0.03,0.04,0.01
7:08:46 PM,-0.78,-0.57,8.70,0.02,0.01,0.01
7:08:46 PM,-0.81,-0.57,8.67,0.02,-0.02,0.01
7:08:46 PM,-0.89,-0.62,8.67,0.00,-0.03,0.01
7:08:46 PM,-1.02,-0.58,8.65,0.01,-0.03,0.01
7:08:46 PM,-0.63,-0.70,8.68,0.02,-0.02,0.01
7:08:46 PM,-0.80,-0.61,8.67,0.01,0.02,0.01
7:08:47 PM,-0.88,-0.65,8.61,0.01,-0.05,0.01
7:08:47 PM,-0.79,-0.62,8.64,0.02,-0.03,0.01
7:08:47 PM,-0.87,-0.60,8.65,-0.00,-0.08,0.01
7:08:47 PM,-0.81,-0.65,8.69,0.01,0.01,0.01
7:08:47 PM,-0.84,-0.63,8.66,-0.00,-0.07,0.01
7:08:47 PM,-0.72,-0.64,8.69,0.01,-0.00,0.01
7:08:47 PM,-0.85,-0.67,8.66,0.01,-0.00,0.01
7:08:47 PM,-0.95,-0.60,8.67,0.01,0.02,0.01
7:08:47 PM,-0.82,-0.62,8.67,0.01,0.01,0.01
7:08:47 PM,-0.75,-0.67,8.61,0.01,-0.01,0.01
7:08:48 PM,-0.70,-0.68,8.66,0.02,-0.01,0.01
7:08:48 PM,-0.66,-0.66,8.64,0.00,-0.02,0.01
7:08:48 PM,-0.79,-0.62,8.58,0.01,0.01,0.01
7:08:48 PM,-0.80,-0.65,8.64,0.01,-0.03,0.01
7:08:48 PM,-0.85,-0.63,8.66,0.01,0.00,0.01
7:08:48 PM,-0.84,-0.66,8.66,0.00,-0.04,0.01
7:08:48 PM,-0.82,-0.62,8.65,0.01,-0.03,0.01
7:08:48 PM,-0.91,-0.65,8.65,0.01,-0.02,0.01
7:08:48 PM,-0.98,-0.64,8.66,0.02,-0.01,0.01
7:08:49 PM,-0.87,-0.68,8.65,0.01,-0.03,0.01
7:08:49 PM,-0.77,-0.69,8.64,-0.00,-0.06,0.01
7:08:49 PM,-0.84,-0.63,8.65,0.01,-0.04,0.01
7:08:49 PM,-0.88,-0.64,8.66,0.01,-0.00,0.01
7:08:49 PM,-0.81,-0.62,8.64,0.02,0.01,0.01
7:08:49 PM,-0.69,-0.61,8.65,0.02,-0.01,0.01
7:08:49 PM,-0.59,-0.68,8.68,0.01,-0.02,0.01
7:08:49 PM,-0.74,-0.64,8.69,-0.02,-0.07,0.01
7:08:49 PM,-0.92,-0.63,8.65,0.00,-0.04,0.01
7:08:49 PM,-0.90,-0.61,8.64,0.01,0.01,0.01
7:08:50 PM,-0.68,-0.67,8.67,0.01,-0.03,0.01
7:08:50 PM,-0.80,-0.67,8.68,0.01,-0.04,0.01
7:08:50 PM,-0.88,-0.61,8.72,0.01,0.01,0.01
7:08:50 PM,-0.79,-0.63,8.64,0.03,0.04,0.01
7:08:50 PM,-0.90,-0.53,8.68,0.03,0.05,0.01
7:08:50 PM,-0.82,-0.62,8.68,-0.01,-0.08,0.01
7:08:50 PM,-0.65,-0.65,8.66,0.02,-0.04,0.01
7:08:50 PM,-0.69,-0.62,8.66,0.00,-0.01,0.01
7:08:50 PM,-0.88,-0.58,8.65,0.00,-0.02,0.01
7:08:51 PM,-0.92,-0.62,8.67,0.00,-0.06,0.01
7:08:51 PM,-0.39,-0.61,8.71,0.01,-0.02,0.01
7:08:51 PM,-0.48,-0.63,8.68,0.00,0.02,0.01
7:08:51 PM,-0.83,-0.68,8.64,-0.04,-0.11,0.01
7:08:51 PM,-0.88,-0.69,8.62,-0.00,-0.01,0.01
7:08:51 PM,-0.99,-0.61,8.62,0.04,0.11,0.01
7:08:51 PM,-0.73,-0.64,8.66,0.01,0.01,0.01
7:08:51 PM,-0.69,-0.63,8.68,-0.00,-0.07,0.01
7:08:51 PM,-0.95,-0.63,8.61,-0.00,-0.07,0.01
7:08:51 PM,-0.87,-0.71,8.62,0.01,-0.08,0.01
7:08:52 PM,-0.92,-0.68,8.63,0.00,-0.01,0.01
7:08:52 PM,-1.17,-0.60,8.66,0.02,-0.00,0.01
7:08:52 PM,-1.11,-0.58,8.61,0.02,-0.00,0.01
7:08:52 PM,-0.68,-0.68,8.68,-0.00,-0.08,0.01
7:08:52 PM,-0.92,-0.64,8.64,-0.01,-0.14,0.01
7:08:52 PM,-1.18,-0.61,8.67,0.00,-0.08,0.01
7:08:52 PM,-1.02,-0.63,8.65,0.03,0.02,0.01
7:08:52 PM,-1.06,-0.58,8.61,0.03,0.03,0.01
7:08:52 PM,-0.87,-0.60,8.63,0.01,0.01,0.01
7:08:53 PM,-0.96,-0.62,8.67,0.03,0.00,0.01
7:08:53 PM,-0.99,-0.66,8.63,0.01,-0.01,0.01
7:08:53 PM,-1.02,-0.63,8.57,-0.02,-0.12,0.01
7:08:53 PM,-0.57,-0.73,8.68,0.01,-0.03,0.01
7:08:53 PM,-0.67,-0.66,8.70,0.01,-0.01,0.01
7:08:53 PM,-0.69,-0.65,8.65,-0.01,-0.04,0.01
7:08:53 PM,-0.89,-0.64,8.63,-0.01,-0.11,0.01
7:08:53 PM,-1.10,-0.62,8.64,-0.01,-0.08,0.01
7:08:53 PM,-0.85,-0.67,8.65,-0.01,-0.06,0.01
7:08:54 PM,-0.70,-0.66,8.65,0.01,-0.02,0.01
7:08:54 PM,-0.90,-0.63,8.65,0.01,-0.03,0.01
7:08:54 PM,-1.07,-0.61,8.61,-0.01,-0.04,0.01
7:08:54 PM,-0.82,-0.65,8.64,0.00,-0.03,0.01
7:08:54 PM,-0.60,-0.67,8.67,0.01,-0.01,0.01
7:08:54 PM,-0.76,-0.67,8.62,0.01,-0.02,0.01
7:08:54 PM,-0.84,-0.61,8.60,0.00,-0.03,0.01
7:08:54 PM,-0.70,-0.68,8.65,0.02,0.01,0.01
7:08:54 PM,-0.75,-0.66,8.65,0.03,0.03,0.01
7:08:54 PM,-0.67,-0.64,8.67,0.02,0.03,0.01
7:08:55 PM,-0.59,-0.67,8.68,0.01,-0.00,0.01
7:08:55 PM,-0.73,-0.64,8.65,-0.00,-0.06,0.01
7:08:55 PM,-0.79,-0.62,8.63,0.00,-0.02,0.01
7:08:55 PM,-0.66,-0.66,8.69,0.01,-0.00,0.01
7:08:55 PM,-0.67,-0.61,8.66,0.01,-0.05,0.01
7:08:55 PM,-0.68,-0.64,8.66,0.00,-0.04,0.01
7:08:55 PM,-0.92,-0.61,8.64,0.01,-0.06,0.01
7:08:55 PM,-0.92,-0.63,8.65,0.02,0.00,0.01
7:08:55 PM,-0.87,-0.63,8.65,0.02,-0.01,0.01
7:08:56 PM,-0.81,-0.61,8.65,0.01,-0.03,0.01
7:08:56 PM,-0.84,-0.60,8.67,0.01,0.02,0.01
7:08:56 PM,-0.79,-0.56,8.65,0.02,0.02,0.01
7:08:56 PM,-0.62,-0.63,8.71,0.02,0.01,0.01
7:08:56 PM,-0.76,-0.62,8.65,0.00,-0.03,0.01
7:08:56 PM,-0.73,-0.64,8.68,-0.00,-0.02,0.01
7:08:56 PM,-0.53,-0.68,8.68,0.01,-0.03,0.01
7:08:56 PM,-0.49,-0.66,8.71,0.00,-0.03,0.01
7:08:56 PM,-0.52,-0.64,8.66,-0.01,-0.05,0.01
7:08:56 PM,-0.51,-0.66,8.66,0.00,-0.03,0.01
7:08:57 PM,-0.42,-0.70,8.69,0.00,-0.02,0.01
7:08:57 PM,-0.67,-0.62,8.65,0.01,-0.06,0.01
7:08:57 PM,-0.64,-0.63,8.66,-0.01,-0.09,0.01
7:08:57 PM,-0.58,-0.67,8.68,0.01,-0.04,0.01
7:08:57 PM,-0.82,-0.61,8.67,-0.00,-0.01,0.01
7:08:57 PM,-0.93,-0.65,8.66,0.00,-0.04,0.01
7:08:57 PM,-1.03,-0.60,8.64,0.02,0.03,0.01
7:08:57 PM,-1.05,-0.59,8.68,0.01,-0.00,0.01
7:08:57 PM,-1.05,-0.58,8.69,0.02,-0.00,0.01
7:08:58 PM,-1.04,-0.61,8.64,0.01,-0.03,0.01
7:08:58 PM,-0.85,-0.63,8.64,0.01,-0.04,0.01
7:08:58 PM,-0.72,-0.62,8.63,0.02,-0.03,0.01
7:08:58 PM,-0.58,-0.63,8.72,0.01,-0.01,0.01
7:08:58 PM,-0.62,-0.64,8.67,0.01,-0.02,0.01
7:08:58 PM,-0.62,-0.64,8.67,0.00,-0.04,0.01
7:08:58 PM,-0.65,-0.68,8.64,0.01,-0.03,0.01
7:08:58 PM,-0.67,-0.65,8.59,0.00,-0.03,0.01
7:08:58 PM,-0.42,-0.72,8.68,0.01,-0.00,0.01
7:08:58 PM,-0.64,-0.65,8.69,0.01,-0.03,0.01
7:08:59 PM,-0.79,-0.63,8.65,0.00,-0.07,0.01
7:08:59 PM,-0.65,-0.70,8.61,0.00,-0.06,0.01
7:08:59 PM,-0.70,-0.67,8.67,-0.00,-0.05,0.01
7:08:59 PM,-0.74,-0.64,8.67,0.01,-0.03,0.01
7:08:59 PM,-0.76,-0.64,8.65,0.01,-0.02,0.01
7:08:59 PM,-0.67,-0.63,8.70,-0.00,-0.04,0.01
7:08:59 PM,-0.76,-0.65,8.70,0.01,-0.02,0.01
7:08:59 PM,-0.73,-0.69,8.62,0.01,0.00,0.01
7:08:59 PM,-0.62,-0.68,8.68,0.02,0.03,0.01
7:09:00 PM,-0.42,-0.68,8.67,0.02,0.02,0.01
7:09:00 PM,-0.42,-0.72,8.62,0.02,-0.05,0.01
7:09:00 PM,-0.70,-0.68,8.67,0.01,-0.02,0.01
7:09:00 PM,-0.88,-0.61,8.61,0.00,0.02,0.01
7:09:00 PM,-0.66,-0.66,8.71,0.03,0.07,0.01
7:09:00 PM,-0.65,-0.62,8.62,0.00,-0.06,0.01
7:09:00 PM,-0.66,-0.65,8.71,0.02,-0.00,0.01
7:09:00 PM,-0.71,-0.64,8.69,0.01,-0.01,0.01
7:09:00 PM,-0.91,-0.54,8.66,0.02,0.03,0.01
7:09:00 PM,-0.70,-0.58,8.67,0.00,-0.06,0.01
7:09:01 PM,-0.74,-0.62,8.63,0.00,-0.03,0.01
7:09:01 PM,-0.74,-0.63,8.64,0.01,-0.05,0.01
7:09:01 PM,-0.57,-0.68,8.67,0.00,-0.04,0.01
7:09:01 PM,-0.51,-0.72,8.68,0.01,0.00,0.01
7:09:01 PM,-0.91,-0.57,8.62,0.02,0.01,0.01
7:09:01 PM,-0.65,-0.65,8.70,0.02,-0.02,0.01
7:09:01 PM,-0.79,-0.60,8.65,0.01,-0.01,0.01
7:09:01 PM,-0.57,-0.65,8.65,0.02,0.03,0.01
7:09:01 PM,-0.68,-0.60,8.66,-0.00,-0.04,0.01
7:09:02 PM,-0.73,-0.60,8.67,0.01,-0.04,0.01
7:09:02 PM,-0.92,-0.58,8.66,0.01,-0.03,0.01
7:09:02 PM,-0.82,-0.61,8.63,0.01,-0.02,0.01
7:09:02 PM,-0.61,-0.60,8.68,0.03,0.01,0.01
7:09:02 PM,-0.64,-0.56,8.70,0.02,-0.02,0.01
7:09:02 PM,-0.57,-0.62,8.69,-0.00,-0.07,0.01
7:09:02 PM,-0.54,-0.61,8.69,0.00,-0.03,0.01
7:09:02 PM,-0.64,-0.60,8.61,-0.00,-0.04,0.01
7:09:02 PM,-0.74,-0.62,8.64,0.01,-0.01,0.01
7:09:02 PM,-0.82,-0.57,8.66,0.04,0.04,0.01
7:09:03 PM,-0.69,-0.60,8.65,-0.03,0.02,0.01
7:09:03 PM,-0.73,-0.68,8.65,-0.04,-0.06,0.01
7:09:03 PM,-0.94,-0.63,8.62,-0.01,-0.03,0.01
7:09:03 PM,-1.10,-0.64,8.62,0.01,0.00,0.01
7:09:03 PM,-0.79,-0.68,8.69,0.02,-0.01,0.01
7:09:03 PM,-0.86,-0.70,8.62,0.03,0.00,0.01
7:09:03 PM,-0.95,-0.63,8.62,0.04,0.07,0.01
7:09:03 PM,-0.97,-0.60,8.67,0.02,0.03,0.01
7:09:03 PM,-0.86,-0.64,8.68,0.02,0.01,0.01
7:09:04 PM,-0.72,-0.62,8.68,0.02,-0.05,0.01
7:09:04 PM,-0.85,-0.61,8.66,-0.01,-0.00,0.01
7:09:04 PM,-0.65,-0.72,8.67,0.02,-0.04,0.01
7:09:04 PM,-0.66,-0.71,8.66,0.01,-0.06,0.01
7:09:04 PM,-0.60,-0.69,8.70,0.02,-0.02,0.01
7:09:04 PM,-0.77,-0.65,8.63,0.01,-0.02,0.01
7:09:04 PM,-0.66,-0.67,8.64,0.00,-0.05,0.01
7:09:04 PM,-0.64,-0.70,8.68,0.02,-0.04,0.01
7:09:04 PM,-0.70,-0.70,8.68,0.02,-0.02,0.01
7:09:05 PM,-0.88,-0.60,8.67,0.01,-0.02,0.01
7:09:05 PM,-0.75,-0.67,8.64,0.01,-0.03,0.01
7:09:05 PM,-0.79,-0.67,8.66,0.01,0.00,0.01
7:09:05 PM,-0.79,-0.68,8.64,0.01,-0.05,0.01
7:09:05 PM,-0.91,-0.64,8.62,0.01,-0.02,0.01
7:09:05 PM,-0.67,-0.70,8.67,-0.00,-0.05,0.01
7:09:05 PM,-0.68,-0.68,8.67,0.02,-0.01,0.01
7:09:05 PM,-0.75,-0.66,8.64,0.01,-0.07,0.01
7:09:05 PM,-0.64,-0.62,8.68,-0.00,-0.07,0.01
7:09:05 PM,-0.77,-0.67,8.62,0.03,0.04,0.01
7:09:06 PM,-0.69,-0.63,8.67,0.01,-0.02,0.01
7:09:06 PM,-0.60,-0.63,8.67,0.01,-0.00,0.01
7:09:06 PM,-0.73,-0.66,8.64,0.02,0.05,0.01
7:09:06 PM,-0.87,-0.64,8.62,0.01,0.02,0.01
7:09:06 PM,-0.79,-0.60,8.64,0.02,0.01,0.01
7:09:06 PM,-0.79,-0.69,8.67,0.02,-0.02,0.01
7:09:06 PM,-0.72,-0.68,8.65,0.02,-0.04,0.01
7:09:06 PM,-0.83,-0.68,8.66,0.01,0.01,0.01
7:09:06 PM,-0.80,-0.67,8.66,0.02,0.01,0.01
7:09:07 PM,-0.64,-0.66,8.66,0.03,0.03,0.01
7:09:07 PM,-0.50,-0.68,8.70,0.02,-0.03,0.01
7:09:07 PM,-0.51,-0.66,8.66,0.01,-0.02,0.01
7:09:07 PM,-0.64,-0.68,8.69,0.01,-0.01,0.01
7:09:07 PM,-0.46,-0.71,8.71,0.00,0.04,0.01
7:09:07 PM,-0.57,-0.70,8.72,0.03,0.05,0.01
7:09:07 PM,-0.66,-0.71,8.63,0.01,-0.04,0.01
7:09:07 PM,-0.45,-0.76,8.64,0.01,-0.04,0.01
7:09:07 PM,-0.72,-0.72,8.61,0.01,-0.03,0.01
7:09:07 PM,-0.57,-0.71,8.65,0.00,-0.00,0.01
7:09:08 PM,-0.63,-0.74,8.60,0.03,0.01,0.01
7:09:08 PM,-0.66,-0.69,8.69,0.04,0.05,0.01
7:09:08 PM,-0.83,-0.61,8.64,-0.00,-0.04,0.01
7:09:08 PM,-0.66,-0.64,8.66,0.01,-0.06,0.01
7:09:08 PM,-0.69,-0.59,8.68,0.05,0.05,0.01
7:09:08 PM,-0.72,-0.63,8.70,-0.01,-0.06,0.01
7:09:08 PM,-0.58,-0.66,8.69,0.02,0.01,0.01
7:09:08 PM,-0.79,-0.65,8.63,0.03,0.02,0.01
7:09:08 PM,-0.76,-0.64,8.65,0.01,-0.00,0.01
7:09:09 PM,-0.51,-0.58,8.73,0.04,0.08,0.01
7:09:09 PM,-0.60,-0.63,8.68,-0.02,-0.07,0.01
7:09:09 PM,-0.57,-0.59,8.62,-0.01,-0.07,0.01
7:09:09 PM,-0.70,-0.62,8.64,-0.01,-0.05,0.01
7:09:09 PM,-0.62,-0.61,8.71,0.03,0.09,0.01
7:09:09 PM,-0.77,-0.62,8.69,0.01,-0.03,0.01
7:09:09 PM,-0.76,-0.67,8.68,0.01,-0.03,0.01
7:09:09 PM,-1.06,-0.55,8.67,-0.01,-0.02,0.01
7:09:09 PM,-0.90,-0.60,8.61,-0.01,-0.02,0.01
7:09:09 PM,-0.83,-0.71,8.62,0.01,-0.02,0.01
7:09:10 PM,-0.94,-0.62,8.65,0.02,0.04,0.01
7:09:10 PM,-0.76,-0.63,8.69,0.01,0.02,0.01
7:09:10 PM,-0.81,-0.62,8.64,0.02,0.03,0.01
7:09:10 PM,-0.67,-0.65,8.71,0.01,-0.01,0.01
7:09:10 PM,-0.76,-0.63,8.65,0.01,-0.01,0.01
7:09:10 PM,-0.65,-0.64,8.72,0.02,0.05,0.01
7:09:10 PM,-0.79,-0.63,8.65,0.00,-0.05,0.01
7:09:10 PM,-0.75,-0.67,8.67,-0.00,-0.04,0.01
7:09:10 PM,-0.88,-0.65,8.64,0.00,-0.02,0.01
7:09:11 PM,-0.87,-0.62,8.61,0.02,-0.00,0.01
7:09:11 PM,-0.61,-0.67,8.67,0.01,-0.04,0.01
7:09:11 PM,-0.70,-0.62,8.71,-0.00,-0.11,0.01
7:09:11 PM,-0.76,-0.64,8.61,0.01,-0.03,0.01
7:09:11 PM,-0.83,-0.61,8.66,0.01,0.01,0.01
7:09:11 PM,-0.84,-0.60,8.65,0.00,-0.03,0.01
7:09:11 PM,-0.84,-0.62,8.72,0.02,-0.00,0.01
7:09:11 PM,-0.74,-0.63,8.66,0.01,-0.04,0.01
7:09:11 PM,-0.85,-0.64,8.67,0.01,-0.04,0.01
7:09:11 PM,-0.87,-0.64,8.68,0.01,-0.04,0.01
7:09:12 PM,-0.84,-0.64,8.63,0.02,0.01,0.01
7:09:12 PM,-0.88,-0.62,8.69,0.02,0.05,0.01
7:09:12 PM,-0.88,-0.58,8.67,0.02,0.02,0.01
7:09:12 PM,-0.87,-0.60,8.67,0.01,-0.04,0.01
7:09:12 PM,-0.86,-0.62,8.62,0.00,-0.02,0.01
7:09:12 PM,-0.75,-0.63,8.61,0.01,-0.02,0.01
7:09:12 PM,-0.74,-0.66,8.62,0.00,-0.01,0.01
7:09:12 PM,-0.85,-0.64,8.64,0.02,0.04,0.01
7:09:12 PM,-0.83,-0.62,8.67,0.02,0.01,0.01
7:09:13 PM,-0.90,-0.58,8.66,0.02,-0.01,0.01
7:09:13 PM,-0.80,-0.61,8.67,0.01,-0.08,0.01
7:09:13 PM,-0.76,-0.63,8.67,-0.01,-0.07,0.01
7:09:13 PM,-0.87,-0.57,8.70,-0.00,-0.04,0.01
7:09:13 PM,-0.76,-0.62,8.65,0.00,-0.06,0.01
7:09:13 PM,-0.76,-0.62,8.72,0.02,-0.04,0.01
7:09:13 PM,-0.88,-0.57,8.66,-0.01,-0.04,0.01
7:09:13 PM,-0.85,-0.62,8.65,-0.00,-0.05,0.01
7:09:13 PM,-0.84,-0.61,8.68,0.00,-0.03,0.01
7:09:13 PM,-0.79,-0.65,8.67,0.01,-0.03,0.01
7:09:14 PM,-0.68,-0.66,8.62,0.01,-0.01,0.01
7:09:14 PM,-0.83,-0.61,8.67,0.01,-0.01,0.01
7:09:14 PM,-0.85,-0.65,8.65,0.02,0.01,0.01
7:09:14 PM,-0.74,-0.64,8.66,0.01,-0.02,0.01
7:09:14 PM,-0.76,-0.60,8.65,0.00,-0.02,0.01
7:09:14 PM,-0.87,-0.64,8.66,0.01,0.02,0.01
7:09:14 PM,-0.87,-0.62,8.62,0.00,-0.06,0.01
7:09:14 PM,-0.87,-0.68,8.68,0.01,-0.05,0.01
7:09:14 PM,-0.97,-0.61,8.68,0.00,-0.02,0.01
7:09:15 PM,-0.71,-0.65,8.68,0.01,-0.05,0.01
7:09:15 PM,-0.81,-0.63,8.68,-0.00,-0.04,0.01
7:09:15 PM,-0.78,-0.68,8.69,0.01,-0.04,0.01
7:09:15 PM,-0.79,-0.69,8.64,0.02,0.02,0.01
7:09:15 PM,-0.78,-0.68,8.69,-0.00,-0.04,0.01
7:09:15 PM,-0.62,-0.73,8.64,0.01,-0.04,0.01
7:09:15 PM,-0.70,-0.70,8.61,0.02,0.02,0.01
7:09:15 PM,-0.81,-0.66,8.67,0.00,-0.02,0.01
7:09:15 PM,-0.76,-0.68,8.70,0.01,-0.01,0.01
7:09:16 PM,-0.65,-0.67,8.64,0.02,0.03,0.01
7:09:16 PM,-0.58,-0.70,8.66,0.01,0.03,0.01
7:09:16 PM,-0.77,-0.67,8.65,0.01,-0.02,0.01
7:09:16 PM,-0.96,-0.65,8.62,0.03,0.02,0.01
7:09:16 PM,-0.64,-0.74,8.64,0.01,0.02,0.01
7:09:16 PM,-0.63,-0.66,8.67,0.01,0.01,0.01
7:09:16 PM,-0.72,-0.67,8.65,-0.01,-0.06,0.01
7:09:16 PM,-0.66,-0.69,8.71,0.01,0.00,0.01
7:09:16 PM,-0.67,-0.68,8.66,0.02,0.03,0.01
7:09:16 PM,-0.77,-0.67,8.68,0.01,0.03,0.01
7:09:17 PM,-0.79,-0.65,8.65,0.02,0.01,0.01
7:09:17 PM,-0.78,-0.66,8.68,0.02,0.03,0.01
7:09:17 PM,-0.78,-0.64,8.68,0.02,0.02,0.01
7:09:17 PM,-0.67,-0.64,8.68,0.01,-0.01,0.01
7:09:17 PM,-0.75,-0.66,8.66,0.01,-0.04,0.01
7:09:17 PM,-0.80,-0.66,8.69,0.01,0.01,0.01
7:09:17 PM,-0.82,-0.65,8.66,0.01,0.02,0.01
7:09:17 PM,-0.83,-0.68,8.65,0.01,0.00,0.01
7:09:17 PM,-0.71,-0.68,8.62,0.01,-0.04,0.01
7:09:18 PM,-0.88,-0.66,8.67,0.01,0.01,0.01
7:09:18 PM,-0.83,-0.67,8.66,0.01,-0.01,0.01
7:09:18 PM,-0.92,-0.63,8.63,0.01,-0.02,0.01
7:09:18 PM,-0.80,-0.67,8.64,0.00,-0.07,0.01
7:09:18 PM,-0.85,-0.62,8.68,0.01,-0.04,0.01
7:09:18 PM,-0.81,-0.66,8.66,0.01,-0.02,0.01
7:09:18 PM,-0.82,-0.67,8.65,0.01,-0.03,0.01
7:09:18 PM,-0.86,-0.64,8.66,0.02,0.05,0.01
7:09:18 PM,-0.88,-0.64,8.64,0.01,0.00,0.01
7:09:18 PM,-0.89,-0.66,8.63,0.01,-0.02,0.01
7:09:19 PM,-0.86,-0.67,8.63,0.00,-0.02,0.01
7:09:19 PM,-0.81,-0.65,8.63,0.02,-0.00,0.01
7:09:19 PM,-0.83,-0.63,8.66,0.01,-0.02,0.01
7:09:19 PM,-0.80,-0.66,8.70,0.00,-0.02,0.01
7:09:19 PM,-0.65,-0.67,8.72,0.02,-0.00,0.01
7:09:19 PM,-0.81,-0.64,8.65,0.01,-0.03,0.01
7:09:19 PM,-0.85,-0.62,8.65,0.00,-0.03,0.01
7:09:19 PM,-0.77,-0.65,8.66,0.01,-0.01,0.01
7:09:19 PM,-0.72,-0.68,8.68,0.01,-0.01,0.01
7:09:20 PM,-0.89,-0.66,8.63,0.00,-0.02,0.01
7:09:20 PM,-0.60,-0.70,8.72,0.00,-0.02,0.01
7:09:20 PM,-0.84,-0.66,8.65,0.01,-0.02,0.01
7:09:20 PM,-1.01,-0.65,8.64,0.01,0.01,0.01
7:09:20 PM,-0.83,-0.66,8.67,0.02,0.00,0.01
7:09:20 PM,-0.89,-0.63,8.66,0.01,-0.02,0.01
7:09:20 PM,-0.57,-0.66,8.66,0.01,-0.01,0.01
7:09:20 PM,-0.59,-0.67,8.65,0.00,-0.06,0.01
7:09:20 PM,-0.95,-0.63,8.65,0.01,-0.01,0.01
7:09:20 PM,-0.97,-0.64,8.64,0.02,0.01,0.01
7:09:21 PM,-0.88,-0.64,8.65,0.00,-0.03,0.01
7:09:21 PM,-0.67,-0.66,8.69,0.01,-0.04,0.01
7:09:21 PM,-0.65,-0.66,8.62,0.01,-0.03,0.01
7:09:21 PM,-0.68,-0.66,8.66,0.01,-0.01,0.01
7:09:21 PM,-0.74,-0.67,8.63,-0.01,-0.06,0.01
7:09:21 PM,-0.69,-0.68,8.67,0.00,-0.04,0.01
7:09:21 PM,-0.82,-0.66,8.63,0.01,-0.03,0.01
7:09:21 PM,-0.86,-0.64,8.64,0.03,-0.00,0.01
7:09:21 PM,-0.73,-0.61,8.70,0.01,-0.02,0.01
7:09:22 PM,-0.70,-0.67,8.65,0.01,0.01,0.01
7:09:22 PM,-0.73,-0.72,8.66,0.01,-0.01,0.01
7:09:22 PM,-0.77,-0.67,8.68,0.01,-0.03,0.01
7:09:22 PM,-0.84,-0.64,8.66,0.02,0.00,0.01
7:09:22 PM,-0.83,-0.66,8.66,0.01,-0.01,0.01
7:09:22 PM,-0.86,-0.63,8.66,0.01,-0.04,0.01
7:09:22 PM,-0.75,-0.65,8.67,0.01,-0.05,0.01
7:09:22 PM,-0.90,-0.64,8.66,0.01,-0.02,0.01
7:09:22 PM,-0.85,-0.64,8.65,0.01,-0.03,0.01
7:09:22 PM,-0.72,-0.64,8.68,0.01,-0.01,0.01
7:09:23 PM,-0.66,-0.67,8.67,0.00,-0.00,0.01
7:09:23 PM,-0.83,-0.67,8.67,0.01,0.01,0.01
7:09:23 PM,-0.96,-0.62,8.62,0.01,0.02,0.01
7:09:23 PM,-0.96,-0.62,8.68,0.02,0.06,0.01
7:09:23 PM,-0.82,-0.67,8.64,0.02,0.01,0.01
7:09:23 PM,-0.77,-0.68,8.65,0.01,-0.03,0.01
7:09:23 PM,-0.79,-0.66,8.66,0.02,0.01,0.01
7:09:23 PM,-0.84,-0.68,8.67,0.02,0.01,0.01
7:09:23 PM,-0.80,-0.62,8.66,0.02,0.00,0.01
7:09:24 PM,-0.73,-0.63,8.67,0.00,-0.06,0.01
7:09:24 PM,-0.75,-0.65,8.66,0.01,-0.00,0.01
7:09:24 PM,-0.91,-0.63,8.69,0.01,0.00,0.01
7:09:24 PM,-0.85,-0.63,8.66,0.02,-0.01,0.01
7:09:24 PM,-0.91,-0.62,8.62,0.02,-0.02,0.01
7:09:24 PM,-0.77,-0.64,8.66,0.01,-0.04,0.01
7:09:24 PM,-0.86,-0.62,8.66,0.01,-0.00,0.01
7:09:24 PM,-0.81,-0.64,8.61,0.01,-0.01,0.01
7:09:24 PM,-0.77,-0.66,8.66,0.01,0.01,0.01
7:09:24 PM,-0.84,-0.66,8.66,0.01,-0.00,0.01
7:09:25 PM,-0.79,-0.64,8.65,0.01,-0.01,0.01
7:09:25 PM,-0.78,-0.67,8.67,0.01,-0.00,0.01
7:09:25 PM,-0.82,-0.63,8.67,0.00,-0.01,0.01
7:09:25 PM,-0.68,-0.65,8.67,0.01,-0.01,0.01
7:09:25 PM,-0.81,-0.65,8.65,0.01,0.01,0.01
7:09:25 PM,-0.87,-0.64,8.66,0.01,-0.03,0.01
7:09:25 PM,-0.80,-0.65,8.65,0.00,-0.06,0.01
7:09:25 PM,-0.86,-0.65,8.67,0.01,-0.02,0.01
7:09:25 PM,-0.76,-0.60,8.66,0.00,-0.02,0.01
7:09:26 PM,-0.79,-0.62,8.69,0.01,-0.02,0.01
7:09:26 PM,-0.80,-0.65,8.71,0.00,-0.04,0.01
7:09:26 PM,-0.85,-0.61,8.68,0.01,-0.03,0.01
7:09:26 PM,-0.90,-0.65,8.67,0.00,-0.06,0.01
7:09:26 PM,-0.90,-0.66,8.64,0.01,-0.03,0.01
7:09:26 PM,-0.74,-0.68,8.66,0.01,-0.01,0.01
7:09:26 PM,-0.80,-0.65,8.67,0.01,-0.01,0.01
7:09:26 PM,-0.88,-0.62,8.65,0.01,-0.03,0.01
7:09:26 PM,-0.80,-0.66,8.68,0.01,-0.01,0.01
7:09:27 PM,-0.74,-0.65,8.68,0.02,-0.00,0.01
7:09:27 PM,-0.90,-0.59,8.66,0.02,-0.00,0.01
7:09:27 PM,-0.58,-0.67,8.65,-0.02,-0.12,0.01
7:09:27 PM,-0.69,-0.70,8.64,-0.01,-0.06,0.01
7:09:27 PM,-0.80,-0.66,8.64,0.01,-0.02,0.01
7:09:27 PM,-0.76,-0.70,8.63,0.01,-0.01,0.01
7:09:27 PM,-0.70,-0.67,8.66,0.02,0.02,0.01
7:09:27 PM,-0.76,-0.65,8.66,0.01,-0.05,0.01
7:09:27 PM,-0.72,-0.67,8.67,0.02,0.01,0.01
7:09:27 PM,-0.82,-0.65,8.66,0.01,0.01,0.01
7:09:28 PM,-0.87,-0.66,8.61,0.02,0.01,0.01
7:09:28 PM,-0.72,-0.65,8.67,0.01,-0.02,0.01
7:09:28 PM,-0.72,-0.67,8.65,0.01,-0.01,0.01
7:09:28 PM,-0.86,-0.63,8.66,0.02,0.02,0.01
7:09:28 PM,-0.79,-0.63,8.68,0.01,-0.00,0.01
7:09:28 PM,-0.77,-0.63,8.65,0.00,-0.05,0.01
7:09:28 PM,-0.90,-0.68,8.61,0.00,-0.04,0.01
7:09:28 PM,-1.07,-0.64,8.62,0.02,0.00,0.01
7:09:28 PM,-0.88,-0.65,8.65,0.01,-0.02,0.01
7:09:29 PM,-0.71,-0.66,8.66,0.01,-0.01,0.01
7:09:29 PM,-0.85,-0.67,8.66,0.01,-0.00,0.01
7:09:29 PM,-0.90,-0.62,8.64,0.01,-0.03,0.01
7:09:29 PM,-0.88,-0.60,8.68,0.01,-0.03,0.01
7:09:29 PM,-0.76,-0.65,8.68,0.02,-0.00,0.01
7:09:29 PM,-0.90,-0.60,8.66,0.02,0.02,0.01
7:09:29 PM,-0.82,-0.63,8.66,0.00,-0.03,0.01
7:09:29 PM,-0.78,-0.63,8.65,0.01,-0.02,0.01
7:09:29 PM,-0.78,-0.62,8.68,0.01,-0.03,0.01
7:09:29 PM,-0.77,-0.67,8.67,0.01,-0.02,0.01
7:09:30 PM,-0.80,-0.67,8.69,0.02,0.03,0.01
7:09:30 PM,-0.86,-0.62,8.66,0.01,-0.01,0.01
7:09:30 PM,-0.66,-0.66,8.68,0.01,0.00,0.01
7:09:30 PM,-1.02,-0.61,8.63,0.02,0.03,0.01
7:09:30 PM,-0.96,-0.62,8.63,0.02,0.00,0.01
7:09:30 PM,-0.88,-0.64,8.67,0.01,-0.03,0.01
7:09:30 PM,-0.79,-0.61,8.67,0.01,-0.02,0.01
7:09:30 PM,-0.75,-0.65,8.71,0.00,-0.04,0.01
7:09:30 PM,-0.89,-0.65,8.67,0.01,-0.02,0.01
7:09:31 PM,-0.81,-0.71,8.66,0.02,0.02,0.01
7:09:31 PM,-0.96,-0.60,8.65,0.01,-0.00,0.01
7:09:31 PM,-0.75,-0.66,8.73,0.01,-0.03,0.01
7:09:31 PM,-0.73,-0.62,8.68,0.02,-0.03,0.01
7:09:31 PM,-0.72,-0.68,8.67,0.01,0.00,0.01
7:09:31 PM,-0.79,-0.62,8.67,0.01,-0.01,0.01
7:09:31 PM,-0.82,-0.61,8.68,0.02,-0.01,0.01
7:09:31 PM,-0.77,-0.63,8.68,0.02,0.01,0.01
7:09:31 PM,-0.73,-0.67,8.67,0.02,0.02,0.01
7:09:31 PM,-0.86,-0.63,8.65,0.01,0.00,0.01
7:09:32 PM,-0.82,-0.63,8.69,0.01,-0.01,0.01
7:09:32 PM,-0.83,-0.67,8.66,0.01,-0.03,0.01
7:09:32 PM,-0.73,-0.65,8.60,0.01,-0.03,0.01
7:09:32 PM,-0.80,-0.62,8.66,0.01,-0.01,0.01
7:09:32 PM,-0.81,-0.65,8.65,0.01,-0.04,0.01
7:09:32 PM,-0.77,-0.68,8.66,0.02,0.01,0.01
7:09:32 PM,-0.78,-0.68,8.66,0.02,0.03,0.01
7:09:32 PM,-0.85,-0.64,8.65,0.01,-0.03,0.01
7:09:33 PM,-0.75,-0.66,8.66,0.02,-0.02,0.01
7:09:33 PM,-0.84,-0.65,8.64,0.01,-0.00,0.01
7:09:33 PM,-0.89,-0.63,8.64,0.01,-0.00,0.01
7:09:33 PM,-0.82,-0.66,8.65,0.01,-0.03,0.01
7:09:33 PM,-0.83,-0.67,8.65,0.01,-0.06,0.01
7:09:33 PM,-0.84,-0.65,8.64,0.02,-0.02,0.01
7:09:33 PM,-0.74,-0.65,8.63,0.01,-0.02,0.01
7:09:33 PM,-0.77,-0.65,8.66,0.01,0.01,0.01
7:09:33 PM,-0.89,-0.61,8.65,0.01,0.01,0.01
7:09:33 PM,-0.87,-0.67,8.66,0.01,-0.03,0.01
7:09:34 PM,-0.81,-0.65,8.65,0.02,-0.01,0.01
7:09:34 PM,-0.80,-0.66,8.64,0.00,-0.03,0.01
7:09:34 PM,-0.88,-0.65,8.64,0.01,-0.02,0.01
7:09:34 PM,-0.97,-0.61,8.63,0.01,-0.00,0.01
7:09:34 PM,-1.05,-0.61,8.61,0.01,-0.03,0.01
7:09:34 PM,-0.79,-0.66,8.66,0.02,0.03,0.01
7:09:34 PM,-0.96,-0.63,8.61,0.01,-0.01,0.01
7:09:34 PM,-0.78,-0.66,8.65,0.01,-0.02,0.01
7:09:34 PM,-0.79,-0.67,8.66,0.01,-0.02,0.01
7:09:34 PM,-0.74,-0.67,8.67,0.02,-0.01,0.01
7:09:35 PM,-0.77,-0.69,8.66,0.01,0.01,0.01
7:09:35 PM,-0.71,-0.67,8.65,0.01,-0.00,0.01
7:09:36 PM,-0.87,-0.68,8.63,0.02,-0.03,0.01
7:09:36 PM,-0.79,-0.67,8.63,0.02,-0.02,0.01
7:09:36 PM,-0.85,-0.61,8.64,0.01,0.03,0.01
7:09:36 PM,-0.83,-0.66,8.62,0.01,-0.01,0.01
7:09:36 PM,-0.71,-0.69,8.66,0.01,-0.04,0.01
7:09:36 PM,-0.65,-0.69,8.65,0.00,-0.06,0.01
7:09:36 PM,-0.70,-0.70,8.66,-0.00,-0.05,0.01
7:09:36 PM,-0.71,-0.63,8.66,0.02,-0.00,0.01
7:09:36 PM,-0.75,-0.65,8.66,0.02,0.01,0.01
7:09:36 PM,-0.76,-0.66,8.66,-0.00,-0.04,0.01
7:09:37 PM,-0.77,-0.66,8.64,0.00,-0.02,0.01
7:09:37 PM,-0.71,-0.65,8.67,0.00,-0.02,0.01
7:09:37 PM,-0.78,-0.58,8.64,0.02,0.05,0.01
7:09:37 PM,-0.88,-0.61,8.64,-0.00,-0.03,0.01
7:09:37 PM,-0.80,-0.61,8.66,-0.00,-0.01,0.01
7:09:37 PM,-0.71,-0.67,8.66,0.02,-0.02,0.01
7:09:37 PM,-0.80,-0.64,8.70,-0.00,-0.08,0.01
7:09:37 PM,-0.83,-0.67,8.64,-0.01,-0.09,0.01
7:09:37 PM,-0.81,-0.66,8.62,0.02,-0.03,0.01
7:09:38 PM,-0.79,-0.68,8.63,-0.01,-0.06,0.01
7:09:38 PM,-0.69,-0.66,8.68,0.02,0.01,0.01
7:09:38 PM,-0.76,-0.65,8.66,0.02,-0.01,0.01
7:09:38 PM,-0.71,-0.67,8.66,0.01,-0.00,0.01
7:09:38 PM,-0.70,-0.65,8.67,0.01,-0.03,0.01
7:09:38 PM,-0.69,-0.66,8.64,0.03,0.03,0.01
7:09:39 PM,-0.98,-0.58,8.70,-0.00,-0.03,0.01
7:09:40 PM,-0.85,-0.66,8.63,0.01,0.01,0.01
7:09:41 PM,-0.63,-0.63,8.65,0.01,-0.02,0.01
7:09:41 PM,-0.66,-0.66,8.69,0.01,-0.08,0.01
7:09:41 PM,-0.76,-0.63,8.64,-0.00,-0.05,0.01
7:09:41 PM,-0.64,-0.65,8.67,0.03,0.02,0.01
7:09:41 PM,-0.64,-0.65,8.65,0.02,0.06,0.01
7:09:41 PM,-0.69,-0.69,8.67,-0.02,0.00,0.01
7:09:41 PM,-0.90,-0.63,8.65,0.00,-0.01,0.01
7:09:41 PM,-0.74,-0.69,8.66,0.01,0.02,0.01
7:09:41 PM,-0.81,-0.65,8.67,0.01,0.01,0.01
7:09:41 PM,-0.69,-0.65,8.62,-0.00,-0.06,0.01
7:09:41 PM,-0.72,-0.66,8.69,0.01,-0.04,0.01
7:09:41 PM,-0.78,-0.65,8.67,0.01,-0.01,0.01
7:09:41 PM,-0.75,-0.66,8.64,0.02,0.00,0.01
7:09:41 PM,-0.63,-0.68,8.67,0.02,0.05,0.01
7:09:41 PM,-0.69,-0.64,8.68,0.02,-0.02,0.01
7:09:41 PM,-0.71,-0.68,8.64,0.01,-0.02,0.01
7:09:41 PM,-0.91,-0.65,8.61,0.01,-0.02,0.01
7:09:42 PM,-0.63,-0.69,8.68,0.02,-0.01,0.01
7:09:42 PM,-0.60,-0.67,8.66,0.02,0.00,0.01
7:09:42 PM,-0.56,-0.66,8.66,0.00,-0.03,0.01
7:09:42 PM,-0.52,-0.70,8.71,0.02,-0.02,0.01
7:09:42 PM,-0.74,-0.62,8.70,0.02,0.02,0.01
7:09:42 PM,-0.64,-0.72,8.73,0.02,0.02,0.01
7:09:42 PM,-0.85,-0.66,8.67,0.01,-0.00,0.01
7:09:42 PM,-0.76,-0.62,8.68,0.01,-0.04,0.01
7:09:42 PM,-0.78,-0.62,8.68,0.02,-0.01,0.01
7:09:43 PM,-1.13,-0.57,8.63,0.01,0.04,0.01
7:09:43 PM,-0.99,-0.61,8.61,0.01,0.03,0.01
7:09:43 PM,-0.65,-0.62,8.67,0.02,0.02,0.01
7:09:43 PM,-0.61,-0.67,8.66,0.01,-0.01,0.01
7:09:43 PM,-0.86,-0.66,8.60,0.01,0.02,0.01
7:09:43 PM,-0.96,-0.60,8.64,0.02,0.03,0.01
7:09:43 PM,-0.79,-0.65,8.68,0.02,0.02,0.01
7:09:43 PM,-0.85,-0.61,8.67,0.01,-0.00,0.01
7:09:45 PM,-0.83,-0.62,8.67,0.00,-0.04,0.01
7:09:45 PM,-0.79,-0.62,8.66,0.01,-0.04,0.01
7:09:45 PM,-0.76,-0.65,8.65,0.01,-0.01,0.01
7:09:45 PM,-0.82,-0.64,8.66,0.02,0.01,0.01
7:09:45 PM,-0.85,-0.62,8.66,0.01,-0.03,0.01
7:09:45 PM,-0.86,-0.64,8.68,0.01,-0.04,0.01
7:09:45 PM,-0.82,-0.67,8.66,0.00,-0.03,0.01
7:09:45 PM,-0.86,-0.62,8.66,0.01,-0.01,0.01
7:09:45 PM,-0.93,-0.64,8.64,0.00,-0.05,0.01
7:09:45 PM,-0.81,-0.64,8.64,-0.00,-0.07,0.01
7:09:45 PM,-0.80,-0.66,8.62,0.02,-0.01,0.01
7:09:45 PM,-0.90,-0.66,8.63,0.02,0.01,0.01
7:09:45 PM,-0.82,-0.62,8.64,0.02,-0.01,0.01
7:09:45 PM,-0.88,-0.65,8.61,0.01,-0.00,0.01
7:09:45 PM,-0.94,-0.61,8.63,0.02,0.05,0.01
7:09:45 PM,-0.83,-0.65,8.65,0.01,-0.01,0.01
7:09:45 PM,-0.85,-0.63,8.67,0.02,0.01,0.01
7:09:45 PM,-0.86,-0.64,8.67,0.01,-0.01,0.01
7:09:46 PM,-0.87,-0.64,8.67,0.00,-0.04,0.01
7:09:46 PM,-0.80,-0.64,8.67,0.01,-0.02,0.01
7:09:47 PM,-0.84,-0.64,8.66,0.01,0.03,0.01
7:09:49 PM,-0.83,-0.62,8.65,0.02,0.01,0.01
7:09:49 PM,-0.81,-0.62,8.62,0.01,-0.01,0.01
7:09:49 PM,-0.80,-0.64,8.69,0.01,-0.03,0.01
7:09:49 PM,-0.73,-0.65,8.72,0.01,-0.03,0.01
7:09:49 PM,-0.87,-0.63,8.66,0.01,-0.01,0.01
7:09:49 PM,-0.86,-0.63,8.65,0.00,-0.05,0.01
7:09:49 PM,-0.79,-0.66,8.67,0.01,-0.02,0.01
7:09:49 PM,-0.82,-0.64,8.75,0.02,0.03,0.01
7:09:49 PM,-0.84,-0.69,8.66,0.02,0.02,0.01
7:09:49 PM,-0.92,-0.63,8.67,0.00,-0.04,0.01
7:09:49 PM,-0.91,-0.66,8.70,0.01,0.00,0.01
7:09:49 PM,-0.90,-0.64,8.69,0.02,0.04,0.01
7:09:49 PM,-0.94,-0.62,8.63,0.01,-0.02,0.01
7:09:50 PM,-0.69,-0.68,8.66,0.01,-0.03,0.01
7:09:50 PM,-0.83,-0.64,8.66,0.01,-0.02,0.01
7:09:50 PM,-0.88,-0.63,8.65,0.02,0.01,0.01
7:09:50 PM,-0.85,-0.65,8.66,0.01,0.00,0.01
7:09:50 PM,-0.87,-0.64,8.65,0.02,-0.01,0.01
7:09:50 PM,-0.91,-0.62,8.66,0.02,0.04,0.01
7:09:50 PM,-0.81,-0.64,8.61,0.01,-0.00,0.01
7:09:50 PM,-1.01,-0.61,8.63,0.01,-0.01,0.01
7:09:50 PM,-0.97,-0.59,8.62,0.01,-0.04,0.01
7:09:50 PM,-0.93,-0.62,8.67,0.02,-0.02,0.01
7:09:51 PM,-0.82,-0.62,8.67,0.02,-0.03,0.01
7:09:51 PM,-0.93,-0.60,8.64,0.03,0.00,0.01
7:09:51 PM,-0.94,-0.60,8.66,0.02,-0.01,0.01
7:09:51 PM,-0.74,-0.64,8.66,0.02,0.02,0.01
7:09:51 PM,-0.63,-0.66,8.67,0.01,-0.04,0.01
7:09:51 PM,-0.60,-0.64,8.65,-0.01,-0.09,0.01
7:09:51 PM,-0.89,-0.58,8.64,0.00,-0.04,0.01
7:09:51 PM,-0.85,-0.62,8.62,0.02,-0.00,0.01
7:09:51 PM,-1.07,-0.55,8.67,-0.01,-0.07,0.01
7:09:52 PM,-1.24,-0.56,8.61,-0.01,-0.09,0.01
7:09:52 PM,-1.03,-0.61,8.65,0.01,-0.04,0.01
7:09:52 PM,-0.86,-0.60,8.63,0.01,-0.01,0.01
7:09:52 PM,-0.85,-0.58,8.67,0.02,0.01,0.01
7:09:52 PM,-0.93,-0.61,8.66,0.00,-0.04,0.01
7:09:52 PM,-1.01,-0.62,8.65,0.01,0.01,0.01
7:09:52 PM,-1.16,-0.59,8.63,0.02,0.02,0.01
7:09:52 PM,-1.07,-0.57,8.66,0.02,-0.01,0.01
7:09:52 PM,-0.93,-0.56,8.65,0.01,-0.02,0.01
7:09:52 PM,-0.77,-0.58,8.69,0.01,-0.04,0.01
7:09:53 PM,-0.85,-0.57,8.66,-0.00,-0.07,0.01
7:09:53 PM,-0.92,-0.56,8.63,0.00,-0.03,0.01
7:09:53 PM,-1.06,-0.57,8.66,0.01,0.01,0.01
7:09:53 PM,-0.96,-0.56,8.66,0.01,0.01,0.01
7:09:53 PM,-0.75,-0.64,8.66,0.02,-0.03,0.01
7:09:53 PM,-0.87,-0.66,8.65,0.02,0.00,0.01
7:09:53 PM,-0.93,-0.59,8.66,0.02,0.04,0.01
7:09:53 PM,-0.92,-0.58,8.64,0.01,0.00,0.01
7:09:53 PM,-0.92,-0.59,8.67,-0.01,-0.01,0.01
7:09:54 PM,-0.86,-0.60,8.66,0.01,-0.01,0.01
7:09:54 PM,-0.87,-0.63,8.65,0.02,-0.00,0.01
7:09:54 PM,-0.79,-0.65,8.67,0.02,-0.00,0.01
7:09:54 PM,-0.90,-0.62,8.64,0.01,-0.02,0.01
7:09:54 PM,-0.71,-0.64,8.67,0.01,-0.02,0.01
7:09:54 PM,-0.81,-0.60,8.69,0.01,-0.02,0.01
7:09:54 PM,-0.99,-0.57,8.61,0.01,-0.01,0.01
7:09:54 PM,-1.03,-0.58,8.60,0.01,-0.03,0.01
7:09:54 PM,-1.00,-0.58,8.62,0.00,-0.05,0.01
7:09:54 PM,-0.99,-0.58,8.68,0.01,-0.01,0.01
7:09:55 PM,-1.06,-0.60,8.65,0.02,-0.00,0.01
7:09:55 PM,-0.86,-0.62,8.65,0.01,-0.01,0.01
7:09:55 PM,-1.03,-0.60,8.63,0.00,-0.01,0.01
7:09:55 PM,-0.92,-0.59,8.66,0.02,0.04,0.01
7:09:55 PM,-1.03,-0.56,8.62,0.02,0.04,0.01
7:09:55 PM,-1.05,-0.64,8.63,0.02,0.01,0.01
7:09:55 PM,-1.05,-0.59,8.62,0.02,0.03,0.01
7:09:55 PM,-0.92,-0.59,8.63,-0.00,-0.03,0.01
7:09:55 PM,-0.96,-0.57,8.62,0.01,-0.02,0.01
7:09:56 PM,-0.99,-0.59,8.64,0.01,-0.02,0.01
7:09:56 PM,-1.02,-0.60,8.64,0.01,-0.04,0.01
7:09:56 PM,-0.91,-0.58,8.69,0.00,-0.05,0.01
7:09:56 PM,-0.94,-0.64,8.63,0.02,-0.01,0.01
7:09:56 PM,-0.85,-0.62,8.69,0.01,-0.01,0.01
7:09:56 PM,-0.91,-0.62,8.66,0.02,0.01,0.01
7:09:56 PM,-0.97,-0.62,8.64,0.01,-0.02,0.01
7:09:56 PM,-0.95,-0.62,8.65,0.01,-0.02,0.01
7:09:56 PM,-0.90,-0.61,8.67,0.01,-0.01,0.01
7:09:57 PM,-0.84,-0.61,8.70,0.01,-0.05,0.01
7:09:57 PM,-0.91,-0.59,8.63,0.02,-0.01,0.01
7:09:57 PM,-1.31,-0.57,8.60,0.01,-0.01,0.01
7:09:57 PM,-1.07,-0.62,8.64,0.02,-0.02,0.01
7:09:57 PM,-0.90,-0.61,8.67,0.01,-0.04,0.01
7:09:57 PM,-0.91,-0.59,8.66,0.00,-0.02,0.01
7:09:57 PM,-0.93,-0.64,8.62,0.01,-0.03,0.01
7:09:57 PM,-1.01,-0.61,8.65,0.02,0.00,0.01
7:09:57 PM,-0.86,-0.63,8.67,0.00,-0.03,0.01
7:09:57 PM,-0.83,-0.63,8.70,0.01,0.01,0.01
7:09:58 PM,-0.86,-0.63,8.67,0.02,0.00,0.01
7:09:58 PM,-0.88,-0.61,8.65,0.01,-0.03,0.01
7:09:58 PM,-0.97,-0.58,8.67,-0.00,-0.08,0.01
7:09:58 PM,-0.89,-0.66,8.61,0.00,-0.05,0.01
7:09:58 PM,-1.00,-0.63,8.63,0.02,-0.01,0.01
7:09:58 PM,-0.83,-0.60,8.67,0.00,-0.06,0.01
7:09:58 PM,-0.98,-0.60,8.64,0.01,-0.03,0.01
7:09:58 PM,-0.93,-0.61,8.67,0.01,-0.03,0.01
7:09:58 PM,-0.96,-0.64,8.65,0.02,-0.02,0.01
7:09:59 PM,-0.93,-0.65,8.64,0.02,0.00,0.01
7:09:59 PM,-0.93,-0.63,8.65,0.01,0.01,0.01
7:09:59 PM,-0.97,-0.57,8.69,-0.01,-0.02,0.01
7:09:59 PM,-0.85,-0.61,8.67,0.02,0.01,0.01
7:09:59 PM,-0.83,-0.61,8.69,0.02,0.01,0.01
7:09:59 PM,-0.95,-0.60,8.62,0.00,-0.04,0.01
7:09:59 PM,-0.96,-0.65,8.60,0.00,-0.04,0.01
7:09:59 PM,-0.95,-0.63,8.66,0.01,-0.02,0.01
7:09:59 PM,-0.99,-0.58,8.61,0.01,-0.03,0.01
7:09:59 PM,-0.90,-0.59,8.65,0.01,-0.02,0.01
7:10:00 PM,-0.74,-0.66,8.65,0.01,-0.03,0.01
7:10:00 PM,-0.95,-0.61,8.67,0.02,-0.02,0.01
7:10:00 PM,-1.05,-0.60,8.61,0.01,-0.03,0.01
7:10:00 PM,-0.93,-0.61,8.70,0.00,-0.02,0.01
7:10:00 PM,-0.98,-0.61,8.66,0.01,-0.06,0.01
7:10:00 PM,-0.91,-0.61,8.67,0.01,0.00,0.01
7:10:00 PM,-0.85,-0.60,8.66,0.00,-0.03,0.01
7:10:00 PM,-0.98,-0.57,8.63,0.01,-0.02,0.01
7:10:00 PM,-0.79,-0.59,8.70,0.02,-0.01,0.01
7:10:01 PM,-1.02,-0.56,8.67,0.01,-0.02,0.01
7:10:01 PM,-0.84,-0.63,8.71,0.03,0.02,0.01
7:10:01 PM,-0.86,-0.59,8.66,0.01,-0.01,0.01
7:10:01 PM,-0.88,-0.58,8.68,0.01,-0.03,0.01
7:10:01 PM,-0.77,-0.64,8.79,0.04,0.02,0.01
7:10:01 PM,-0.82,-0.58,8.71,0.01,-0.02,0.01
7:10:01 PM,-0.86,-0.59,8.66,0.00,-0.02,0.01
7:10:01 PM,-0.88,-0.60,8.66,0.02,0.04,0.01
7:10:01 PM,-0.96,-0.56,8.65,0.01,0.01,0.01
7:10:01 PM,-0.94,-0.56,8.66,0.02,-0.01,0.01
7:10:02 PM,-0.95,-0.61,8.64,0.02,-0.02,0.01
7:10:02 PM,-0.90,-0.59,8.67,0.02,-0.04,0.01
7:10:02 PM,-0.97,-0.55,8.68,0.01,-0.01,0.01
7:10:02 PM,-0.93,-0.58,8.66,0.01,-0.03,0.01
7:10:02 PM,-0.90,-0.60,8.66,0.01,-0.00,0.01
7:10:02 PM,-0.91,-0.57,8.69,0.01,-0.00,0.01
7:10:02 PM,-0.89,-0.55,8.66,-0.01,-0.06,0.01
7:10:02 PM,-0.93,-0.57,8.65,0.00,-0.04,0.01
7:10:02 PM,-0.88,-0.61,8.66,0.01,-0.03,0.01
7:10:03 PM,-0.79,-0.59,8.66,0.01,-0.03,0.01
7:10:03 PM,-0.93,-0.59,8.70,0.01,0.02,0.01
7:10:03 PM,-0.92,-0.57,8.65,0.01,0.00,0.01
7:10:03 PM,-0.92,-0.57,8.68,0.02,0.00,0.01
7:10:03 PM,-0.79,-0.57,8.69,0.01,-0.02,0.01
7:10:03 PM,-0.90,-0.58,8.64,0.02,-0.04,0.01
7:10:03 PM,-0.80,-0.61,8.71,-0.00,-0.04,0.01
7:10:03 PM,-0.75,-0.61,8.70,0.02,-0.02,0.01
7:10:03 PM,-0.91,-0.59,8.64,0.02,0.02,0.01
7:10:03 PM,-1.02,-0.57,8.63,-0.01,-0.04,0.01
7:10:04 PM,-0.97,-0.58,8.61,0.01,-0.01,0.01
7:10:04 PM,-1.01,-0.56,8.65,0.01,-0.01,0.01
7:10:04 PM,-0.91,-0.56,8.67,0.01,-0.01,0.01
7:10:04 PM,-0.77,-0.60,8.70,0.02,0.02,0.01
7:10:04 PM,-0.90,-0.60,8.66,-0.01,-0.03,0.01
7:10:04 PM,-1.16,-0.56,8.62,0.01,0.00,0.01
7:10:04 PM,-1.16,-0.53,8.62,0.02,-0.02,0.01
7:10:04 PM,-1.03,-0.53,8.67,0.02,0.00,0.01
7:10:04 PM,-0.80,-0.60,8.71,0.01,-0.04,0.01
7:10:05 PM,-0.81,-0.58,8.69,-0.01,-0.06,0.01
7:10:05 PM,-0.95,-0.57,8.66,0.00,-0.04,0.01
7:10:05 PM,-0.87,-0.59,8.67,0.01,0.00,0.01
7:10:05 PM,-0.98,-0.56,8.63,0.01,0.01,0.01
7:10:05 PM,-0.98,-0.58,8.62,0.01,-0.04,0.01
7:10:05 PM,-0.94,-0.62,8.64,0.01,-0.03,0.01
7:10:05 PM,-0.96,-0.59,8.64,-0.00,-0.02,0.01
7:10:05 PM,-0.95,-0.61,8.69,0.01,-0.05,0.01
7:10:05 PM,-0.91,-0.60,8.66,0.01,-0.02,0.01
7:10:05 PM,-0.80,-0.61,8.67,0.01,0.01,0.01
7:10:06 PM,-0.73,-0.60,8.70,0.01,-0.03,0.01
7:10:06 PM,-0.75,-0.60,8.67,-0.00,-0.03,0.01
7:10:06 PM,-0.84,-0.62,8.63,0.02,-0.00,0.01
7:10:06 PM,-0.97,-0.60,8.63,0.01,0.00,0.01
7:10:06 PM,-0.97,-0.60,8.62,0.01,0.02,0.01
7:10:06 PM,-0.87,-0.62,8.68,0.01,-0.02,0.01
7:10:06 PM,-0.93,-0.61,8.68,0.01,-0.02,0.01
7:10:06 PM,-1.10,-0.60,8.66,0.02,-0.01,0.01
7:10:06 PM,-0.91,-0.59,8.65,0.02,0.01,0.01
7:10:07 PM,-0.82,-0.58,8.69,0.01,-0.02,0.01
7:10:07 PM,-0.80,-0.62,8.67,0.01,-0.01,0.01
7:10:07 PM,-0.96,-0.59,8.66,0.01,0.02,0.01
7:10:07 PM,-0.98,-0.56,8.68,0.03,0.02,0.01
7:10:07 PM,-0.94,-0.57,8.65,0.02,0.00,0.01
7:10:07 PM,-0.92,-0.55,8.67,0.00,-0.01,0.01
7:10:07 PM,-0.75,-0.61,8.66,-0.00,-0.04,0.01
7:10:07 PM,-0.86,-0.60,8.65,-0.00,-0.06,0.01
7:10:07 PM,-0.80,-0.63,8.68,0.00,-0.06,0.01
7:10:08 PM,-0.85,-0.62,8.65,0.00,-0.04,0.01
7:10:08 PM,-0.87,-0.59,8.66,-0.00,-0.06,0.01
7:10:08 PM,-0.86,-0.57,8.68,0.01,-0.03,0.01
7:10:08 PM,-0.79,-0.61,8.68,-0.00,-0.04,0.01
7:10:08 PM,-0.93,-0.62,8.64,-0.01,-0.03,0.01
7:10:08 PM,-1.01,-0.62,8.65,0.00,-0.03,0.01
7:10:08 PM,-0.89,-0.62,8.68,0.02,-0.05,0.01
7:10:08 PM,-0.80,-0.62,8.71,0.01,-0.06,0.01
7:10:08 PM,-0.90,-0.64,8.68,0.01,-0.03,0.01
7:10:08 PM,-0.83,-0.66,8.64,0.01,-0.04,0.01
7:10:09 PM,-0.95,-0.60,8.62,0.02,0.02,0.01
7:10:09 PM,-0.92,-0.59,8.70,0.02,-0.02,0.01
7:10:09 PM,-0.83,-0.62,8.63,0.02,-0.03,0.01
7:10:09 PM,-0.82,-0.66,8.66,0.01,-0.01,0.01
7:10:09 PM,-0.87,-0.63,8.70,0.02,0.03,0.01
7:10:09 PM,-0.90,-0.59,8.64,0.01,0.01,0.01
7:10:09 PM,-0.94,-0.57,8.66,0.00,-0.01,0.01
7:10:09 PM,-0.83,-0.59,8.69,0.01,-0.04,0.01
7:10:09 PM,-0.82,-0.60,8.67,0.01,-0.02,0.01
7:10:10 PM,-0.94,-0.57,8.66,0.01,-0.01,0.01
7:10:10 PM,-0.94,-0.56,8.67,0.01,-0.03,0.01
7:10:10 PM,-0.86,-0.59,8.66,0.02,-0.03,0.01
7:10:10 PM,-0.85,-0.53,8.61,0.01,-0.06,0.01
7:10:10 PM,-0.78,-0.60,8.65,0.01,-0.04,0.01
7:10:10 PM,-0.89,-0.59,8.66,0.01,-0.03,0.01
7:10:10 PM,-1.00,-0.54,8.65,0.00,-0.04,0.01
7:10:10 PM,-0.98,-0.54,8.64,0.02,0.01,0.01
7:10:10 PM,-0.91,-0.55,8.65,0.01,-0.01,0.01
7:10:10 PM,-0.92,-0.57,8.67,0.02,0.02,0.01
7:10:11 PM,-0.94,-0.59,8.66,0.01,-0.01,0.01
7:10:11 PM,-0.95,-0.60,8.66,0.01,-0.03,0.01
7:10:11 PM,-1.09,-0.57,8.63,0.01,-0.02,0.01
7:10:11 PM,-0.91,-0.59,8.62,0.01,-0.03,0.01
7:10:11 PM,-0.81,-0.58,8.68,0.01,-0.01,0.01
7:10:11 PM,-0.79,-0.60,8.67,0.01,-0.03,0.01
7:10:11 PM,-0.98,-0.57,8.64,0.01,-0.03,0.01
7:10:11 PM,-0.97,-0.55,8.64,0.01,-0.01,0.01
7:10:11 PM,-0.98,-0.55,8.66,0.02,0.04,0.01
7:10:12 PM,-1.06,-0.55,8.66,0.02,0.03,0.01
7:10:12 PM,-0.89,-0.56,8.65,0.01,-0.03,0.01
7:10:12 PM,-0.91,-0.59,8.69,0.01,-0.01,0.01
7:10:12 PM,-0.92,-0.59,8.67,0.01,-0.01,0.01
7:10:12 PM,-0.99,-0.56,8.65,0.01,-0.02,0.01
7:10:12 PM,-0.90,-0.60,8.63,0.00,-0.03,0.01
7:10:12 PM,-1.01,-0.61,8.72,-0.01,-0.03,0.01
7:10:12 PM,-0.90,-0.58,8.61,0.00,-0.02,0.01
7:10:12 PM,-0.80,-0.58,8.68,0.00,-0.03,0.01
7:10:12 PM,-0.92,-0.55,8.67,-0.00,-0.04,0.01
7:10:13 PM,-0.92,-0.61,8.66,0.00,-0.06,0.01
7:10:13 PM,-0.94,-0.62,8.68,0.01,-0.01,0.01
7:10:13 PM,-0.85,-0.58,8.68,0.01,0.02,0.01
7:10:13 PM,-0.90,-0.59,8.63,0.01,-0.01,0.01
7:10:13 PM,-1.02,-0.56,8.66,0.02,0.01,0.01
7:10:13 PM,-0.91,-0.60,8.68,0.02,-0.01,0.01
7:10:13 PM,-0.81,-0.58,8.67,0.02,-0.00,0.01
7:10:13 PM,-0.80,-0.60,8.69,0.01,-0.01,0.01
7:10:13 PM,-0.90,-0.58,8.69,0.01,-0.01,0.01
7:10:14 PM,-0.85,-0.57,8.68,0.01,-0.02,0.01
7:10:14 PM,-0.74,-0.58,8.67,0.01,-0.01,0.01
7:10:14 PM,-0.82,-0.59,8.66,0.00,-0.03,0.01
7:10:14 PM,-0.94,-0.59,8.66,0.01,-0.03,0.01
7:10:14 PM,-0.90,-0.62,8.65,-0.00,-0.05,0.01
7:10:14 PM,-0.83,-0.62,8.68,0.01,-0.02,0.01
7:10:14 PM,-0.88,-0.62,8.66,0.02,0.02,0.01
7:10:14 PM,-0.93,-0.63,8.63,0.01,-0.02,0.01
7:10:14 PM,-0.99,-0.61,8.66,0.01,-0.02,0.01
7:10:14 PM,-1.05,-0.57,8.65,0.01,-0.02,0.01
7:10:15 PM,-0.88,-0.60,8.66,0.01,-0.02,0.01
7:10:15 PM,-0.86,-0.59,8.66,0.02,0.04,0.01
7:10:15 PM,-0.96,-0.59,8.67,0.01,-0.01,0.01
7:10:15 PM,-0.95,-0.59,8.67,0.01,-0.01,0.01
7:10:15 PM,-0.87,-0.60,8.68,0.00,-0.05,0.01
7:10:15 PM,-0.84,-0.62,8.63,0.01,-0.02,0.01
7:10:15 PM,-0.93,-0.58,8.64,0.02,-0.01,0.01
7:10:15 PM,-0.86,-0.63,8.66,0.01,-0.03,0.01
7:10:15 PM,-0.82,-0.59,8.67,0.01,-0.02,0.01
7:10:16 PM,-0.97,-0.58,8.64,0.01,-0.05,0.01
7:10:16 PM,-1.12,-0.56,8.67,0.01,-0.02,0.01
7:10:16 PM,-1.02,-0.59,8.63,0.01,-0.01,0.01
7:10:16 PM,-0.98,-0.59,8.64,0.02,-0.00,0.01
7:10:16 PM,-0.93,-0.58,8.67,0.02,-0.01,0.01
7:10:16 PM,-0.92,-0.58,8.62,0.02,0.03,0.01
7:10:16 PM,-0.91,-0.58,8.64,0.02,0.03,0.01
7:10:16 PM,-0.88,-0.59,8.67,0.01,-0.04,0.01
7:10:16 PM,-0.80,-0.61,8.68,0.00,-0.05,0.01
7:10:16 PM,-0.89,-0.60,8.66,0.01,-0.01,0.01
7:10:17 PM,-0.87,-0.59,8.66,0.02,-0.00,0.01
7:10:17 PM,-0.90,-0.59,8.66,0.01,-0.04,0.01
7:10:17 PM,-0.91,-0.62,8.64,0.02,0.01,0.01
7:10:17 PM,-0.95,-0.58,8.65,0.02,0.00,0.01
7:10:17 PM,-0.96,-0.59,8.63,0.01,-0.01,0.01
7:10:17 PM,-0.97,-0.59,8.64,0.01,-0.03,0.01
7:10:17 PM,-1.00,-0.61,8.63,0.01,-0.04,0.01
7:10:17 PM,-1.02,-0.58,8.63,0.01,-0.04,0.01
7:10:17 PM,-0.94,-0.62,8.60,0.02,-0.02,0.01
7:10:18 PM,-1.00,-0.57,8.62,0.03,0.04,0.01
7:10:18 PM,-0.91,-0.59,8.67,0.01,-0.01,0.01
7:10:18 PM,-0.91,-0.58,8.67,0.01,-0.03,0.01
7:10:18 PM,-0.96,-0.57,8.68,0.01,-0.02,0.01
7:10:18 PM,-0.89,-0.58,8.69,0.01,0.01,0.01
7:10:18 PM,-0.90,-0.56,8.66,0.01,-0.01,0.01
7:10:18 PM,-1.00,-0.57,8.64,0.02,0.00,0.01
7:10:18 PM,-1.07,-0.55,8.64,0.00,-0.04,0.01
7:10:18 PM,-0.94,-0.58,8.66,-0.00,-0.05,0.01
7:10:18 PM,-0.96,-0.58,8.66,0.01,-0.01,0.01
7:10:19 PM,-0.95,-0.59,8.64,0.00,-0.02,0.01
7:10:19 PM,-0.94,-0.51,8.67,-0.00,-0.04,0.01
7:10:19 PM,-0.99,-0.54,8.66,0.02,0.01,0.01
7:10:19 PM,-0.99,-0.54,8.67,0.01,-0.03,0.01
7:10:19 PM,-0.84,-0.57,8.68,-0.01,-0.03,0.01
7:10:19 PM,-0.85,-0.57,8.68,0.02,0.02,0.01
7:10:19 PM,-0.90,-0.57,8.65,0.01,0.03,0.01
7:10:19 PM,-0.96,-0.56,8.67,0.01,0.02,0.01
7:10:19 PM,-0.85,-0.55,8.64,0.01,-0.05,0.01
7:10:20 PM,-0.89,-0.59,8.67,0.01,-0.04,0.01
7:10:20 PM,-0.76,-0.59,8.67,0.01,-0.04,0.01
7:10:20 PM,-0.77,-0.59,8.68,0.01,-0.02,0.01
7:10:20 PM,-0.88,-0.58,8.66,0.00,-0.04,0.01
7:10:20 PM,-0.84,-0.60,8.70,0.02,0.01,0.01
7:10:20 PM,-0.79,-0.57,8.69,0.01,-0.04,0.01
7:10:20 PM,-0.71,-0.65,8.68,-0.01,-0.02,0.01
7:10:20 PM,-0.89,-0.58,8.70,0.01,0.02,0.01
7:10:20 PM,-1.03,-0.59,8.63,-0.02,-0.03,0.01
7:10:21 PM,-0.96,-0.63,8.66,0.01,-0.01,0.01
7:10:21 PM,-0.99,-0.60,8.64,0.01,-0.04,0.01
7:10:21 PM,-0.86,-0.58,8.71,0.03,-0.00,0.01
7:10:21 PM,-0.77,-0.60,8.68,0.01,-0.04,0.01
7:10:21 PM,-0.87,-0.59,8.66,-0.01,-0.02,0.01
7:10:21 PM,-0.90,-0.62,8.66,-0.01,-0.06,0.01
7:10:21 PM,-0.73,-0.68,8.67,0.02,-0.03,0.01
7:10:21 PM,-0.63,-0.65,8.64,0.01,-0.00,0.01
7:10:21 PM,-0.69,-0.62,8.68,0.02,-0.01,0.01
7:10:21 PM,-0.74,-0.66,8.71,0.01,-0.04,0.01
7:10:22 PM,-0.92,-0.61,8.66,0.01,-0.02,0.01
7:10:22 PM,-0.91,-0.59,8.65,0.02,-0.00,0.01
7:10:22 PM,-0.96,-0.57,8.67,0.03,0.04,0.01
7:10:22 PM,-0.82,-0.63,8.68,-0.00,-0.03,0.01
7:10:22 PM,-0.67,-0.63,8.67,0.02,0.02,0.01
7:10:22 PM,-0.53,-0.66,8.71,0.01,0.03,0.01
7:10:22 PM,-0.70,-0.61,8.68,0.01,0.00,0.01
7:10:22 PM,-0.83,-0.65,8.67,0.01,-0.02,0.01
7:10:22 PM,-0.97,-0.66,8.63,0.03,0.04,0.01
7:10:23 PM,-0.76,-0.59,8.65,0.01,-0.01,0.01
7:10:23 PM,-0.55,-0.68,8.70,0.01,-0.01,0.01
7:10:23 PM,-0.82,-0.63,8.62,-0.00,-0.07,0.01
7:10:23 PM,-0.86,-0.67,8.66,0.00,0.01,0.01
7:10:23 PM,-0.72,-0.68,8.68,0.01,-0.02,0.01
7:10:23 PM,-0.70,-0.69,8.66,0.01,-0.04,0.01
7:10:23 PM,-0.60,-0.66,8.67,0.01,-0.02,0.01
7:10:23 PM,-0.64,-0.65,8.68,0.01,-0.04,0.01
7:10:23 PM,-0.82,-0.64,8.64,0.01,-0.01,0.01
7:10:23 PM,-0.70,-0.68,8.63,0.02,0.02,0.01
7:10:24 PM,-0.82,-0.65,8.64,0.02,-0.00,0.01
7:10:24 PM,-0.91,-0.65,8.67,0.01,-0.00,0.01
7:10:24 PM,-0.84,-0.63,8.66,0.01,0.02,0.01
7:10:24 PM,-0.75,-0.65,8.66,0.01,-0.02,0.01
7:10:24 PM,-0.79,-0.60,8.68,-0.00,-0.05,0.01
7:10:24 PM,-0.89,-0.65,8.62,0.01,-0.02,0.01
7:10:24 PM,-0.65,-0.67,8.67,0.02,-0.00,0.01
7:10:24 PM,-0.77,-0.67,8.64,0.02,0.00,0.01
7:10:24 PM,-0.73,-0.66,8.65,0.02,0.00,0.01
7:10:25 PM,-0.68,-0.65,8.67,0.01,-0.04,0.01
7:10:25 PM,-0.60,-0.68,8.64,0.01,-0.02,0.01
7:10:25 PM,-0.59,-0.65,8.67,0.00,-0.03,0.01
7:10:25 PM,-0.68,-0.66,8.66,-0.01,-0.03,0.01
7:10:25 PM,-0.73,-0.64,8.65,0.01,-0.01,0.01
7:10:25 PM,-0.67,-0.63,8.67,0.01,0.00,0.01
7:10:25 PM,-0.64,-0.64,8.65,0.00,-0.06,0.01
7:10:25 PM,-0.81,-0.62,8.66,0.01,-0.04,0.01
7:10:25 PM,-0.75,-0.65,8.64,0.01,-0.04,0.01
7:10:25 PM,-0.76,-0.67,8.66,0.01,-0.02,0.01
7:10:26 PM,-0.75,-0.64,8.68,0.01,0.01,0.01
7:10:26 PM,-0.58,-0.69,8.67,0.01,-0.01,0.01
7:10:26 PM,-0.42,-0.73,8.74,0.01,0.03,0.01
7:10:26 PM,-0.85,-0.65,8.67,0.00,-0.01,0.01
7:10:26 PM,-0.91,-0.67,8.62,0.01,-0.03,0.01
7:10:26 PM,-0.79,-0.66,8.63,0.02,-0.02,0.01
7:10:26 PM,-0.68,-0.67,8.66,0.01,-0.03,0.01
7:10:26 PM,-0.73,-0.66,8.68,0.01,-0.04,0.01
7:10:26 PM,-0.65,-0.70,8.68,0.02,-0.01,0.01
7:10:27 PM,-0.55,-0.68,8.67,0.02,-0.02,0.01
7:10:27 PM,-0.74,-0.67,8.64,0.01,0.01,0.01
7:10:27 PM,-0.79,-0.66,8.65,0.01,-0.03,0.01
7:10:27 PM,-0.60,-0.70,8.66,0.01,-0.04,0.01
7:10:27 PM,-0.70,-0.72,8.61,0.00,-0.03,0.01
7:10:27 PM,-0.60,-0.69,8.68,0.01,-0.02,0.01
7:10:27 PM,-0.59,-0.65,8.65,0.03,-0.04,0.01
7:10:27 PM,-0.76,-0.67,8.62,0.00,0.00,0.01
7:10:27 PM,-0.51,-0.79,8.64,-0.04,-0.22,0.01
7:10:28 PM,-0.46,-0.62,8.69,0.01,-0.18,0.01
7:10:28 PM,-0.54,-0.70,8.69,0.06,0.10,0.01
7:10:28 PM,-0.73,-0.66,8.65,0.02,0.04,0.01
7:10:28 PM,-0.96,-0.63,8.65,-0.00,-0.01,0.01
7:10:28 PM,-0.72,-0.61,8.69,0.00,-0.02,0.01
7:10:28 PM,-0.89,-0.66,8.62,-0.00,-0.02,0.01
7:10:28 PM,-0.87,-0.68,8.65,0.01,-0.01,0.01
7:10:28 PM,-0.87,-0.61,8.69,0.00,-0.02,0.01
7:10:28 PM,-1.16,-0.58,8.67,-0.00,-0.02,0.01
7:10:29 PM,-0.84,-0.68,8.64,-0.00,-0.06,0.01
7:10:29 PM,-0.73,-0.72,8.66,0.00,-0.07,0.01
7:10:29 PM,-0.66,-0.74,8.66,0.00,-0.03,0.01
7:10:29 PM,-0.46,-0.76,8.67,0.00,-0.03,0.01
7:10:29 PM,-0.49,-0.76,8.64,0.01,-0.05,0.01
7:10:29 PM,-0.71,-0.72,8.67,0.02,0.01,0.01
7:10:29 PM,-0.73,-0.71,8.65,0.01,-0.01,0.01
7:10:29 PM,-0.56,-0.70,8.66,0.02,0.01,0.01
7:10:29 PM,-0.62,-0.75,8.62,0.02,-0.05,0.01
7:10:29 PM,-0.65,-0.74,8.62,0.01,-0.02,0.01
7:10:30 PM,-0.63,-0.72,8.66,0.01,-0.03,0.01
7:10:30 PM,-0.63,-0.71,8.68,0.04,0.01,0.01
7:10:30 PM,-0.73,-0.70,8.65,0.01,-0.01,0.01
7:10:30 PM,-0.71,-0.67,8.66,-0.01,-0.02,0.01
7:10:30 PM,-0.56,-0.77,8.61,-0.02,-0.05,0.01
7:10:30 PM,-0.68,-0.74,8.66,0.02,0.04,0.01
7:10:30 PM,-0.76,-0.73,8.61,-0.00,-0.05,0.01
7:10:30 PM,-0.80,-0.69,8.67,0.02,0.03,0.01
7:10:30 PM,-0.86,-0.71,8.63,0.02,0.01,0.01
7:10:30 PM,-0.78,-0.71,8.60,0.02,0.00,0.01
7:10:31 PM,-0.67,-0.71,8.66,0.01,-0.01,0.01
7:10:31 PM,-0.59,-0.73,8.63,0.00,-0.05,0.01
7:10:31 PM,-0.68,-0.74,8.69,0.01,-0.01,0.01
7:10:31 PM,-0.81,-0.74,8.62,0.02,-0.01,0.01
7:10:31 PM,-0.87,-0.68,8.71,0.03,0.01,0.01
7:10:31 PM,-0.72,-0.70,8.64,0.01,-0.05,0.01
7:10:31 PM,-0.82,-0.69,8.66,0.02,-0.03,0.01
7:10:31 PM,-0.83,-0.70,8.61,0.00,0.00,0.01
7:10:31 PM,-0.73,-0.69,8.68,0.01,0.01,0.01
7:10:32 PM,-0.64,-0.71,8.66,0.02,0.01,0.01
7:10:32 PM,-0.55,-0.77,8.68,0.01,0.00,0.01
7:10:32 PM,-0.82,-0.70,8.64,0.02,0.02,0.01
7:10:32 PM,-0.68,-0.72,8.68,0.03,0.02,0.01
7:10:32 PM,-0.60,-0.72,8.66,0.02,0.03,0.01
7:10:32 PM,-0.79,-0.70,8.62,0.01,0.01,0.01
7:10:32 PM,-0.67,-0.71,8.67,0.03,0.02,0.01
7:10:32 PM,-0.47,-0.73,8.67,0.01,0.01,0.01
7:10:32 PM,-0.48,-0.73,8.67,0.01,-0.03,0.01
7:10:32 PM,-0.71,-0.75,8.64,0.00,-0.02,0.01
7:10:33 PM,-0.70,-0.73,8.66,0.00,-0.02,0.01
7:10:33 PM,-0.73,-0.74,8.64,0.01,0.01,0.01
7:10:33 PM,-0.58,-0.76,8.67,-0.00,-0.07,0.01
7:10:33 PM,-0.46,-0.78,8.63,0.01,-0.01,0.01
7:10:33 PM,-0.52,-0.77,8.69,0.01,-0.03,0.01
7:10:33 PM,-0.68,-0.75,8.62,0.00,-0.04,0.01
7:10:33 PM,-0.70,-0.76,8.65,0.01,-0.01,0.01
7:10:33 PM,-0.77,-0.72,8.63,0.01,0.01,0.01
7:10:33 PM,-0.60,-0.69,8.63,-0.00,-0.04,0.01
7:10:34 PM,-0.56,-0.77,8.62,-0.00,-0.05,0.01
7:10:34 PM,-0.68,-0.74,8.65,0.02,-0.01,0.01
7:10:34 PM,-0.76,-0.71,8.66,0.00,-0.02,0.01
7:10:34 PM,-0.63,-0.73,8.67,0.01,-0.03,0.01
7:10:34 PM,-0.58,-0.72,8.61,0.01,-0.02,0.01
7:10:34 PM,-0.64,-0.73,8.66,0.00,-0.02,0.01
7:10:34 PM,-0.67,-0.71,8.69,0.01,-0.04,0.01
7:10:35 PM,-0.71,-0.74,8.63,0.01,-0.03,0.01
7:10:35 PM,-0.73,-0.73,8.62,0.01,-0.01,0.01
7:10:36 PM,-0.65,-0.74,8.63,0.01,-0.02,0.01
7:10:36 PM,-0.53,-0.74,8.66,0.02,-0.02,0.01
7:10:36 PM,-0.63,-0.71,8.65,-0.00,-0.04,0.01
7:10:36 PM,-0.58,-0.75,8.65,0.02,-0.01,0.01
7:10:36 PM,-0.78,-0.71,8.66,0.02,-0.01,0.01
7:10:36 PM,-0.52,-0.75,8.68,0.01,-0.02,0.01
7:10:36 PM,-0.68,-0.72,8.67,0.02,0.02,0.01
7:10:36 PM,-0.62,-0.73,8.66,0.01,-0.01,0.01
7:10:36 PM,-0.58,-0.75,8.66,0.02,-0.02,0.01
7:10:36 PM,-0.45,-0.74,8.66,-0.00,-0.10,0.01
7:10:37 PM,-0.45,-0.77,8.60,0.01,-0.06,0.01
7:10:37 PM,-0.71,-0.77,8.61,0.00,-0.01,0.01
7:10:37 PM,-0.73,-0.73,8.62,0.01,-0.03,0.01
7:10:37 PM,-0.67,-0.73,8.63,0.02,-0.00,0.01
7:10:37 PM,-0.61,-0.74,8.63,0.01,-0.04,0.01
7:10:37 PM,-0.60,-0.73,8.66,0.02,-0.03,0.01
7:10:37 PM,-0.86,-0.70,8.65,0.01,-0.02,0.01
7:10:37 PM,-0.69,-0.73,8.64,0.01,-0.02,0.01
7:10:37 PM,-0.68,-0.72,8.68,0.02,0.01,0.01
7:10:37 PM,-0.62,-0.72,8.64,0.01,-0.01,0.01
7:10:38 PM,-0.53,-0.75,8.65,0.01,0.00,0.01
7:10:38 PM,-0.57,-0.74,8.65,0.01,-0.01,0.01
7:10:38 PM,-0.54,-0.73,8.62,0.01,-0.02,0.01
7:10:38 PM,-0.58,-0.74,8.62,0.02,-0.02,0.01
7:10:38 PM,-0.55,-0.75,8.66,0.02,-0.04,0.01
7:10:38 PM,-0.51,-0.73,8.65,0.01,-0.07,0.01
7:10:38 PM,-0.45,-0.76,8.64,0.00,-0.02,0.01
7:10:38 PM,-0.55,-0.76,8.65,0.01,-0.01,0.01
7:10:38 PM,-0.58,-0.71,8.69,0.02,0.00,0.01
7:10:39 PM,-0.40,-0.74,8.65,0.01,-0.08,0.01
7:10:39 PM,-0.42,-0.70,8.65,0.02,-0.03,0.01
7:10:39 PM,-0.47,-0.72,8.68,0.01,-0.02,0.01
7:10:39 PM,-0.55,-0.68,8.67,-0.01,-0.06,0.01
7:10:39 PM,-0.73,-0.68,8.66,0.01,0.01,0.01
7:10:39 PM,-0.76,-0.67,8.67,-0.01,-0.02,0.01
7:10:39 PM,-0.71,-0.68,8.60,-0.03,-0.02,0.01
7:10:39 PM,-0.39,-0.72,8.68,-0.01,-0.05,0.01
7:10:39 PM,-0.34,-0.76,8.69,-0.00,-0.08,0.01
7:10:40 PM,-0.45,-0.75,8.66,0.01,-0.01,0.01
7:10:40 PM,-0.69,-0.70,8.63,0.02,-0.02,0.01
7:10:40 PM,-0.67,-0.64,8.65,0.00,0.00,0.01
7:10:40 PM,-0.47,-0.74,8.62,-0.01,-0.05,0.01
7:10:40 PM,-0.58,-0.69,8.68,0.01,-0.05,0.01
7:10:40 PM,-0.58,-0.71,8.66,0.01,-0.01,0.01
7:10:40 PM,-0.49,-0.75,8.64,0.01,0.02,0.01
7:10:40 PM,-0.45,-0.74,8.61,0.02,0.03,0.01
7:10:40 PM,-0.52,-0.70,8.67,0.01,-0.02,0.01
7:10:40 PM,-0.62,-0.68,8.67,0.01,-0.02,0.01
7:10:41 PM,-0.61,-0.70,8.65,0.01,-0.01,0.01
7:10:41 PM,-0.45,-0.69,8.61,0.00,-0.04,0.01
7:10:41 PM,-0.54,-0.73,8.65,0.01,-0.01,0.01
7:10:41 PM,-0.63,-0.70,8.61,0.02,0.01,0.01
7:10:41 PM,-0.57,-0.72,8.63,0.00,-0.04,0.01
7:10:41 PM,-0.58,-0.73,8.66,0.01,-0.02,0.01
7:10:41 PM,-0.65,-0.70,8.63,0.01,-0.01,0.01
7:10:41 PM,-0.63,-0.69,8.65,0.01,-0.03,0.01
7:10:41 PM,-0.58,-0.73,8.62,0.00,-0.01,0.01
7:10:42 PM,-0.57,-0.70,8.65,0.00,-0.02,0.01
7:10:42 PM,-0.61,-0.71,8.62,0.00,-0.02,0.01
7:10:42 PM,-0.58,-0.74,8.66,0.03,0.04,0.01
7:10:42 PM,-0.69,-0.68,8.65,0.01,0.00,0.01
7:10:42 PM,-0.68,-0.69,8.66,0.01,-0.00,0.01
7:10:42 PM,-0.63,-0.71,8.64,0.00,-0.01,0.01
7:10:42 PM,-0.68,-0.67,8.66,0.00,-0.02,0.01
7:10:42 PM,-0.67,-0.71,8.63,0.01,-0.04,0.01
7:10:42 PM,-0.62,-0.69,8.64,0.01,-0.03,0.01
7:10:42 PM,-0.61,-0.71,8.66,0.00,-0.04,0.01
7:10:43 PM,-0.49,-0.73,8.66,0.02,0.01,0.01
7:10:43 PM,-0.65,-0.71,8.64,0.00,-0.00,0.01
7:10:43 PM,-0.60,-0.71,8.66,0.02,0.01,0.01
7:10:43 PM,-0.45,-0.72,8.65,0.02,0.02,0.01
7:10:43 PM,-0.53,-0.69,8.63,0.02,-0.01,0.01
7:10:43 PM,-0.51,-0.69,8.66,0.01,-0.05,0.01
7:10:43 PM,-0.57,-0.69,8.65,0.01,-0.02,0.01
7:10:43 PM,-0.53,-0.71,8.67,0.02,-0.00,0.01
7:10:43 PM,-0.59,-0.70,8.64,0.01,-0.02,0.01
7:10:44 PM,-0.47,-0.74,8.64,0.01,-0.02,0.01
7:10:44 PM,-0.54,-0.69,8.67,0.03,0.01,0.01
7:10:44 PM,-0.51,-0.70,8.61,-0.00,-0.03,0.01
7:10:44 PM,-0.58,-0.70,8.66,0.00,-0.03,0.01
7:10:44 PM,-0.53,-0.71,8.66,-0.00,-0.04,0.01
7:10:44 PM,-0.62,-0.71,8.65,0.03,-0.01,0.01
7:10:44 PM,-0.66,-0.69,8.65,0.03,0.01,0.01
7:10:44 PM,-0.47,-0.70,8.66,0.00,-0.01,0.01
7:10:44 PM,-0.53,-0.71,8.67,0.01,0.02,0.01
7:10:45 PM,-0.55,-0.70,8.65,0.01,-0.02,0.01
7:10:45 PM,-0.46,-0.73,8.65,0.02,-0.01,0.01
7:10:45 PM,-0.51,-0.76,8.59,0.03,-0.02,0.01
7:10:45 PM,-0.51,-0.80,8.68,0.04,0.03,0.01
7:10:45 PM,-0.68,-0.69,8.68,0.02,0.01,0.01
7:10:45 PM,-0.56,-0.67,8.66,0.01,-0.02,0.01
7:10:45 PM,-0.52,-0.70,8.64,0.01,-0.02,0.01
7:10:45 PM,-0.50,-0.70,8.62,0.01,-0.03,0.01
7:10:45 PM,-0.43,-0.70,8.68,-0.00,-0.05,0.01
7:10:45 PM,-0.63,-0.67,8.65,0.01,-0.03,0.01
7:10:46 PM,-0.62,-0.68,8.66,0.01,0.00,0.01
7:10:46 PM,-0.70,-0.65,8.66,-0.00,-0.02,0.01
7:10:46 PM,-0.53,-0.76,8.64,0.02,-0.01,0.01
7:10:46 PM,-0.48,-0.71,8.64,0.01,-0.01,0.01
7:10:46 PM,-0.48,-0.69,8.67,0.01,0.00,0.01
7:10:46 PM,-0.45,-0.74,8.63,0.01,-0.01,0.01
7:10:46 PM,-0.62,-0.70,8.63,0.01,0.00,0.01
7:10:46 PM,-0.62,-0.71,8.67,0.01,0.00,0.01
7:10:46 PM,-0.51,-0.70,8.66,0.02,0.01,0.01
7:10:46 PM,-0.56,-0.67,8.67,0.02,0.00,0.01
7:10:47 PM,-0.47,-0.69,8.67,0.01,-0.02,0.01
7:10:47 PM,-0.47,-0.71,8.67,0.01,-0.01,0.01
7:10:47 PM,-0.60,-0.70,8.69,0.01,-0.00,0.01
7:10:47 PM,-0.74,-0.64,8.62,0.01,0.00,0.01
7:10:47 PM,-0.45,-0.70,8.65,0.00,-0.03,0.01
7:10:47 PM,-0.31,-0.74,8.66,0.02,0.01,0.01
7:10:47 PM,-0.48,-0.71,8.65,0.01,0.02,0.01
7:10:47 PM,-0.59,-0.67,8.66,0.01,-0.02,0.01
7:10:47 PM,-0.52,-0.72,8.67,0.02,0.00,0.01
7:10:48 PM,-0.45,-0.73,8.66,0.00,-0.04,0.01
7:10:48 PM,-0.62,-0.68,8.66,0.01,-0.01,0.01
7:10:48 PM,-0.63,-0.65,8.70,0.01,-0.04,0.01
7:10:48 PM,-0.70,-0.68,8.66,0.00,-0.05,0.01
7:10:48 PM,-0.56,-0.72,8.63,0.00,-0.04,0.01
7:10:48 PM,-0.54,-0.71,8.65,-0.00,-0.05,0.01
7:10:48 PM,-0.65,-0.68,8.68,0.01,-0.04,0.01
7:10:48 PM,-0.58,-0.69,8.62,0.01,-0.01,0.01
7:10:48 PM,-0.50,-0.70,8.65,0.02,0.01,0.01
7:10:48 PM,-0.55,-0.68,8.68,0.01,-0.01,0.01
7:10:49 PM,-0.56,-0.68,8.66,0.02,0.02,0.01
7:10:49 PM,-0.51,-0.66,8.66,0.00,-0.04,0.01
7:10:49 PM,-0.45,-0.68,8.64,0.01,-0.03,0.01
7:10:49 PM,-0.59,-0.72,8.65,0.02,0.00,0.01
7:10:49 PM,-0.53,-0.70,8.64,0.02,0.00,0.01
7:10:49 PM,-0.47,-0.70,8.68,0.00,-0.02,0.01
7:10:49 PM,-0.60,-0.69,8.65,0.01,-0.04,0.01
7:10:49 PM,-0.63,-0.66,8.64,0.00,-0.04,0.01
7:10:49 PM,-0.65,-0.67,8.66,0.01,-0.01,0.01
7:10:50 PM,-0.68,-0.66,8.66,0.01,0.01,0.01
7:10:50 PM,-0.51,-0.68,8.62,0.00,-0.04,0.01
7:10:50 PM,-0.47,-0.69,8.66,0.01,-0.02,0.01
7:10:50 PM,-0.55,-0.70,8.62,-0.00,-0.03,0.01
7:10:50 PM,-0.52,-0.71,8.62,-0.01,-0.06,0.01
7:10:50 PM,-0.61,-0.70,8.66,0.01,-0.02,0.01
7:10:50 PM,-0.59,-0.72,8.67,0.00,-0.02,0.01
7:10:50 PM,-0.39,-0.77,8.63,0.02,0.01,0.01
7:10:50 PM,-0.45,-0.74,8.63,0.00,-0.02,0.01
7:10:50 PM,-0.54,-0.74,8.62,0.02,-0.02,0.01
7:10:51 PM,-0.51,-0.73,8.63,0.03,0.02,0.01
7:10:51 PM,-0.65,-0.69,8.65,0.02,0.02,0.01
7:10:51 PM,-0.55,-0.69,8.70,0.00,0.02,0.01
7:10:51 PM,-0.52,-0.72,8.68,0.02,0.02,0.01
7:10:51 PM,-0.57,-0.70,8.65,0.01,-0.01,0.01
7:10:51 PM,-0.48,-0.74,8.67,0.01,-0.05,0.01
7:10:51 PM,-0.54,-0.72,8.67,0.02,0.02,0.01
7:10:51 PM,-0.53,-0.72,8.65,0.02,-0.01,0.01
7:10:51 PM,-0.55,-0.68,8.65,0.02,-0.00,0.01
7:10:52 PM,-0.42,-0.73,8.66,0.01,-0.04,0.01
7:10:52 PM,-0.49,-0.68,8.67,0.01,-0.04,0.01
7:10:52 PM,-0.56,-0.70,8.66,-0.00,-0.05,0.01
7:10:52 PM,-0.59,-0.70,8.65,0.01,-0.01,0.01
7:10:52 PM,-0.63,-0.66,8.66,0.02,-0.02,0.01
7:10:52 PM,-0.58,-0.70,8.69,0.03,-0.01,0.01
7:10:52 PM,-0.63,-0.65,8.67,-0.01,-0.05,0.01
7:10:52 PM,-0.56,-0.69,8.66,0.03,0.02,0.01
7:10:52 PM,-0.53,-0.69,8.66,0.02,0.02,0.01
7:10:53 PM,-0.56,-0.71,8.65,0.00,-0.02,0.01
7:10:53 PM,-0.45,-0.70,8.63,0.00,-0.05,0.01
7:10:53 PM,-0.50,-0.70,8.65,0.01,-0.02,0.01
7:10:53 PM,-0.59,-0.69,8.64,0.01,-0.01,0.01
7:10:53 PM,-0.45,-0.71,8.66,0.03,0.03,0.01
7:10:53 PM,-0.47,-0.69,8.67,0.01,-0.02,0.01
7:10:53 PM,-0.44,-0.75,8.64,0.02,-0.01,0.01
7:10:53 PM,-0.57,-0.72,8.62,0.01,-0.02,0.01
7:10:53 PM,-0.63,-0.70,8.66,0.01,-0.01,0.01
7:10:53 PM,-0.63,-0.68,8.65,-0.00,-0.04,0.01
7:10:54 PM,-0.58,-0.69,8.65,0.01,-0.02,0.01
7:10:54 PM,-0.55,-0.71,8.69,-0.00,-0.05,0.01
7:10:54 PM,-0.62,-0.68,8.66,0.01,-0.03,0.01
7:10:54 PM,-0.55,-0.73,8.65,0.01,-0.03,0.01
7:10:54 PM,-0.69,-0.68,8.62,0.01,-0.01,0.01
7:10:54 PM,-0.72,-0.69,8.63,0.01,-0.02,0.01
7:10:54 PM,-0.70,-0.69,8.65,0.02,-0.01,0.01
7:10:54 PM,-0.71,-0.64,8.66,0.01,0.01,0.01
7:10:54 PM,-0.71,-0.67,8.67,0.01,0.00,0.01
7:10:55 PM,-0.68,-0.67,8.63,0.01,-0.02,0.01
7:10:55 PM,-0.73,-0.65,8.64,0.02,0.02,0.01
7:10:55 PM,-0.68,-0.66,8.69,0.01,-0.00,0.01
7:10:55 PM,-0.64,-0.66,8.68,0.01,-0.03,0.01
7:10:55 PM,-0.66,-0.68,8.66,0.00,-0.04,0.01
7:10:55 PM,-0.67,-0.70,8.66,0.01,-0.03,0.01
7:10:55 PM,-0.72,-0.72,8.64,0.01,-0.03,0.01
7:10:55 PM,-0.70,-0.67,8.63,0.01,-0.02,0.01
7:10:55 PM,-0.54,-0.70,8.66,0.01,-0.01,0.01
7:10:56 PM,-0.62,-0.69,8.67,0.01,-0.02,0.01
7:10:56 PM,-0.66,-0.68,8.64,0.01,-0.02,0.01
7:10:56 PM,-0.80,-0.64,8.64,0.03,0.02,0.01
7:10:56 PM,-0.70,-0.65,8.65,0.02,-0.01,0.01
7:10:56 PM,-0.70,-0.67,8.61,0.03,0.07,0.01
7:10:56 PM,-0.75,-0.64,8.65,0.03,-0.03,0.01
7:10:56 PM,-0.74,-0.68,8.68,0.02,-0.00,0.01
7:10:56 PM,-0.80,-0.64,8.69,0.01,0.03,0.01
7:10:56 PM,-0.73,-0.64,8.65,0.01,-0.03,0.01
7:10:56 PM,-0.62,-0.68,8.68,0.00,-0.04,0.01
7:10:57 PM,-0.64,-0.70,8.66,0.01,-0.03,0.01
7:10:57 PM,-0.76,-0.68,8.62,0.02,-0.04,0.01
7:10:57 PM,-1.02,-0.66,8.55,0.02,-0.02,0.01
7:10:57 PM,-0.74,-0.61,8.64,0.02,0.03,0.01
7:10:57 PM,-0.86,-0.61,8.65,0.01,0.01,0.01
7:10:57 PM,-0.78,-0.60,8.67,0.02,0.02,0.01
7:10:57 PM,-0.76,-0.64,8.69,0.00,-0.03,0.01
7:10:57 PM,-0.65,-0.69,8.66,0.01,0.01,0.01
7:10:57 PM,-0.58,-0.69,8.67,0.00,-0.01,0.01
7:10:58 PM,-0.67,-0.68,8.66,-0.00,-0.05,0.01
7:10:58 PM,-0.74,-0.66,8.63,0.00,-0.03,0.01
7:10:58 PM,-0.91,-0.68,8.65,0.01,0.03,0.01
7:10:58 PM,-0.80,-0.62,8.66,0.01,-0.07,0.01
7:10:58 PM,-0.64,-0.66,8.65,0.01,-0.05,0.01
7:10:58 PM,-0.54,-0.70,8.64,0.02,-0.02,0.01
7:10:58 PM,-0.65,-0.67,8.65,0.01,-0.05,0.01
7:10:58 PM,-0.75,-0.62,8.63,-0.00,-0.03,0.01
7:10:58 PM,-0.66,-0.66,8.69,0.01,0.02,0.01
7:10:58 PM,-0.90,-0.61,8.63,-0.00,-0.04,0.01
7:10:59 PM,-0.72,-0.66,8.65,0.01,-0.05,0.01
7:10:59 PM,-0.68,-0.67,8.64,0.01,-0.01,0.01
7:10:59 PM,-0.68,-0.68,8.68,0.01,0.02,0.01
7:10:59 PM,-0.70,-0.69,8.67,0.02,0.01,0.01
7:10:59 PM,-0.58,-0.68,8.60,0.01,-0.03,0.01
7:10:59 PM,-0.77,-0.63,8.65,0.01,-0.01,0.01
7:10:59 PM,-0.66,-0.68,8.65,0.00,-0.03,0.01
7:10:59 PM,-0.80,-0.64,8.63,0.00,-0.01,0.01
7:10:59 PM,-0.76,-0.65,8.65,0.01,-0.02,0.01
7:11:00 PM,-0.75,-0.65,8.63,0.01,-0.04,0.01
7:11:00 PM,-0.61,-0.70,8.66,0.00,-0.07,0.01
7:11:00 PM,-0.65,-0.69,8.64,0.01,-0.00,0.01
7:11:00 PM,-0.69,-0.66,8.65,0.01,0.03,0.01
7:11:00 PM,-0.59,-0.70,8.62,0.02,0.00,0.01
7:11:00 PM,-0.71,-0.66,8.67,0.01,-0.01,0.01
7:11:00 PM,-0.65,-0.68,8.67,0.02,0.00,0.01
7:11:00 PM,-0.77,-0.66,8.64,0.01,-0.02,0.01
7:11:00 PM,-0.74,-0.70,8.62,-0.00,-0.03,0.01
7:11:00 PM,-0.67,-0.69,8.66,-0.00,-0.06,0.01
7:11:01 PM,-0.66,-0.69,8.68,0.02,-0.02,0.01
7:11:01 PM,-0.68,-0.67,8.63,0.02,-0.01,0.01
7:11:01 PM,-0.66,-0.68,8.66,0.01,0.04,0.01
7:11:01 PM,-0.77,-0.65,8.66,0.01,-0.01,0.01
7:11:01 PM,-0.74,-0.68,8.61,0.01,-0.00,0.01
7:11:01 PM,-0.56,-0.65,8.67,0.02,-0.00,0.01
7:11:01 PM,-0.75,-0.65,8.61,0.01,-0.02,0.01
7:11:01 PM,-0.85,-0.70,8.62,0.01,-0.01,0.01
7:11:01 PM,-0.86,-0.64,8.66,0.01,0.02,0.01
7:11:01 PM,-0.55,-0.68,8.63,0.02,0.01,0.01
7:11:02 PM,-0.56,-0.67,8.67,0.00,-0.02,0.01
7:11:02 PM,-0.62,-0.72,8.67,0.01,-0.02,0.01
7:11:02 PM,-0.85,-0.70,8.60,0.00,-0.04,0.01
7:11:02 PM,-0.80,-0.70,8.60,0.01,-0.01,0.01
7:11:02 PM,-0.69,-0.69,8.65,0.02,0.02,0.01
7:11:02 PM,-0.61,-0.73,8.67,0.01,0.00,0.01
7:11:02 PM,-0.59,-0.74,8.67,0.01,-0.02,0.01
7:11:02 PM,-0.85,-0.66,8.65,0.02,0.00,0.01
7:11:02 PM,-0.85,-0.69,8.65,-0.00,-0.06,0.01
7:11:03 PM,-0.65,-0.73,8.64,0.01,0.00,0.01
7:11:03 PM,-0.67,-0.70,8.64,0.01,-0.00,0.01
7:11:03 PM,-0.67,-0.70,8.68,0.01,-0.02,0.01
7:11:03 PM,-0.46,-0.73,8.64,0.01,-0.02,0.01
7:11:03 PM,-0.44,-0.73,8.68,0.00,-0.06,0.01
7:11:03 PM,-0.59,-0.70,8.68,0.01,-0.02,0.01
7:11:03 PM,-0.81,-0.68,8.63,0.01,-0.02,0.01
7:11:03 PM,-0.62,-0.71,8.65,0.01,-0.04,0.01
7:11:03 PM,-0.67,-0.70,8.69,0.01,-0.02,0.01
7:11:03 PM,-0.69,-0.67,8.61,0.00,-0.03,0.01
7:11:04 PM,-0.79,-0.70,8.67,0.01,-0.02,0.01
7:11:04 PM,-0.85,-0.69,8.64,0.01,-0.02,0.01
7:11:04 PM,-0.66,-0.71,8.61,0.01,0.00,0.01
7:11:04 PM,-0.58,-0.71,8.67,0.02,-0.01,0.01
7:11:04 PM,-0.58,-0.72,8.65,0.01,-0.01,0.01
7:11:04 PM,-0.65,-0.70,8.68,0.01,-0.00,0.01
7:11:04 PM,-0.75,-0.69,8.66,0.01,-0.00,0.01
7:11:04 PM,-0.74,-0.69,8.63,0.01,-0.00,0.01
7:11:04 PM,-0.68,-0.72,8.65,0.00,-0.01,0.01
7:11:05 PM,-0.60,-0.74,8.66,0.01,-0.01,0.01
7:11:05 PM,-0.67,-0.72,8.66,0.01,-0.01,0.01
7:11:05 PM,-0.79,-0.68,8.66,0.01,-0.04,0.01
7:11:05 PM,-0.56,-0.72,8.67,-0.01,-0.08,0.01
7:11:05 PM,-0.62,-0.77,8.64,0.01,-0.06,0.01
7:11:05 PM,-0.72,-0.68,8.66,0.01,-0.01,0.01
7:11:05 PM,-0.61,-0.69,8.67,0.02,-0.00,0.01
7:11:05 PM,-0.74,-0.63,8.64,0.02,0.02,0.01
