Timestamp,Accel X,Accel Y,Accel Z,Gyro X,Gyro Y,Gyro Z
7:11:39 PM,1.81,8.68,3.48,-0.00,-0.16,0.01
7:11:39 PM,1.52,8.81,3.29,0.08,0.18,0.01
7:11:39 PM,1.13,8.78,3.12,0.17,0.19,0.01
7:11:40 PM,1.30,8.88,3.29,0.03,-0.05,0.01
7:11:40 PM,0.69,8.84,3.15,0.02,0.05,0.01
7:11:40 PM,1.66,8.84,3.31,0.08,0.05,0.01
7:11:40 PM,1.12,9.11,2.98,0.08,0.05,0.01
7:11:40 PM,0.85,8.93,3.18,0.04,0.05,0.01
7:11:40 PM,1.29,8.95,3.05,-0.05,-0.12,0.01
7:11:40 PM,1.22,8.95,3.06,0.03,0.06,0.01
7:11:40 PM,1.24,8.82,3.09,0.05,0.14,0.01
7:11:40 PM,1.07,8.90,3.17,-0.01,-0.02,0.01
7:11:40 PM,0.87,8.90,3.18,-0.04,-0.04,0.01
7:11:41 PM,1.48,8.76,3.29,-0.03,-0.08,0.01
7:11:41 PM,1.53,8.84,3.26,0.03,0.16,0.01
7:11:41 PM,0.96,9.12,2.74,0.07,0.10,0.01
7:11:41 PM,1.05,8.86,3.17,0.07,0.16,0.01
7:11:41 PM,0.87,9.05,2.87,-0.02,-0.01,0.01
7:11:41 PM,1.04,8.86,3.15,0.01,-0.01,0.01
7:11:41 PM,1.29,8.80,3.22,-0.07,-0.06,0.01
7:11:41 PM,0.97,8.92,3.25,-0.00,0.05,0.01
7:11:41 PM,1.19,9.20,3.20,0.00,-0.02,0.01
7:11:42 PM,0.35,9.08,2.94,-0.09,-0.04,0.01
7:11:42 PM,1.06,8.88,3.29,-0.05,-0.12,0.01
7:11:42 PM,1.36,8.87,3.13,0.19,0.03,0.01
7:11:42 PM,1.72,8.80,3.73,0.02,-0.10,0.01
7:11:42 PM,1.56,8.66,3.47,0.09,0.05,0.01
7:11:42 PM,1.27,8.63,3.42,0.03,0.06,0.01
7:11:42 PM,1.11,8.96,2.99,0.08,0.08,0.01
7:11:42 PM,1.39,8.78,3.30,0.02,-0.02,0.01
7:11:42 PM,1.06,8.88,3.19,0.06,0.01,0.01
7:11:42 PM,1.09,8.83,3.17,0.02,-0.02,0.01
7:11:43 PM,1.16,8.91,2.98,0.02,0.02,0.01
7:11:43 PM,1.09,9.02,3.04,0.05,0.01,0.01
7:11:43 PM,0.87,9.05,2.89,0.12,0.09,0.01
7:11:43 PM,0.89,9.22,2.84,0.05,0.07,0.01
7:11:43 PM,1.27,8.99,2.93,0.05,0.04,0.01
7:11:43 PM,0.63,9.16,2.66,-0.01,-0.01,0.01
7:11:43 PM,0.96,9.11,2.77,0.01,0.08,0.01
7:11:43 PM,0.85,9.14,2.84,0.02,0.10,0.01
7:11:43 PM,0.90,8.89,3.11,0.03,0.05,0.01
7:11:44 PM,1.02,8.85,3.35,-0.02,-0.10,0.01
7:11:44 PM,1.13,8.78,3.53,-0.01,-0.05,0.01
7:11:44 PM,1.32,8.77,3.49,-0.07,-0.17,0.01
7:11:44 PM,1.17,8.84,3.35,0.05,0.09,0.01
7:11:44 PM,0.95,9.00,3.34,-0.01,-0.10,0.01
7:11:44 PM,1.16,8.78,3.40,-0.02,-0.08,0.01
7:11:44 PM,1.36,8.88,3.49,-0.07,-0.23,0.01
7:11:44 PM,1.78,8.69,3.61,-0.05,-0.15,0.01
7:11:44 PM,1.36,8.84,3.45,0.07,0.01,0.01
7:11:45 PM,1.53,8.70,3.75,-0.03,-0.03,0.01
7:11:45 PM,1.51,8.71,3.49,0.01,-0.10,0.01
7:11:45 PM,1.35,8.73,3.50,0.03,0.02,0.01
7:11:45 PM,1.16,8.92,3.20,-0.06,-0.09,0.01
7:11:45 PM,0.91,9.06,2.94,-0.02,0.01,0.01
7:11:45 PM,1.15,8.91,3.35,-0.14,-0.17,0.01
7:11:45 PM,0.81,8.82,3.68,-0.06,-0.07,0.01
7:11:45 PM,0.94,8.94,3.28,-0.05,-0.10,0.01
7:11:45 PM,0.91,8.93,3.25,-0.13,-0.21,0.01
7:11:45 PM,0.63,9.00,3.20,-0.08,-0.08,0.01
7:11:46 PM,1.62,8.79,3.32,-0.10,-0.15,0.01
7:11:46 PM,1.11,8.91,3.13,-0.01,-0.02,0.01
7:11:46 PM,0.90,9.04,2.99,-0.04,0.01,0.01
7:11:46 PM,1.03,8.89,3.52,-0.15,-0.13,0.01
7:11:46 PM,1.09,8.87,3.04,-0.05,-0.12,0.01
7:11:46 PM,0.80,8.92,3.33,-0.01,-0.07,0.01
7:11:46 PM,0.93,8.81,3.18,-0.01,0.08,0.01
7:11:46 PM,0.70,8.98,3.20,-0.05,-0.06,0.01
7:11:46 PM,1.26,8.78,3.41,-0.07,-0.08,0.01
7:11:47 PM,1.43,8.73,3.37,-0.04,-0.14,0.01
7:11:47 PM,1.12,8.74,3.51,-0.02,-0.06,0.01
7:11:47 PM,0.63,9.16,3.08,0.01,-0.00,0.01
7:11:47 PM,0.83,8.93,3.15,0.05,0.08,0.01
7:11:47 PM,0.93,8.72,3.41,0.03,0.03,0.01
7:11:47 PM,1.03,8.84,3.57,-0.06,-0.19,0.01
7:11:47 PM,1.32,8.60,3.73,-0.03,-0.17,0.01
7:11:47 PM,1.82,8.52,3.75,0.04,0.04,0.01
7:11:47 PM,0.96,8.83,3.48,0.09,0.10,0.01
7:11:47 PM,0.95,8.88,3.35,0.03,0.06,0.01
7:11:48 PM,0.31,8.42,3.45,0.07,0.26,0.01
7:11:48 PM,1.27,8.84,3.44,-0.05,-0.20,0.01
7:11:48 PM,1.52,8.62,3.71,-0.06,-0.12,0.01
7:11:48 PM,1.50,8.71,3.62,-0.06,-0.22,0.01
7:11:48 PM,1.18,8.74,3.60,-0.04,-0.11,0.01
7:11:48 PM,0.84,8.77,3.56,-0.05,-0.17,0.01
7:11:48 PM,1.51,8.60,3.67,-0.08,-0.13,0.01
7:11:48 PM,0.99,8.86,3.66,-0.06,-0.16,0.01
7:11:48 PM,2.04,8.62,3.88,0.03,-0.17,0.01
7:11:49 PM,0.74,9.05,3.44,0.03,0.09,0.01
7:11:49 PM,1.29,8.79,3.55,0.02,-0.04,0.01
7:11:49 PM,1.11,8.69,3.62,0.09,0.01,0.01
7:11:49 PM,1.21,8.75,3.36,0.00,-0.01,0.01
7:11:49 PM,1.64,8.79,3.61,0.02,-0.11,0.01
7:11:49 PM,1.80,8.45,3.92,-0.02,-0.04,0.01
7:11:49 PM,1.39,8.60,3.90,0.10,0.03,0.01
7:11:49 PM,1.37,8.56,3.85,0.06,-0.01,0.01
7:11:49 PM,1.27,8.69,3.71,0.05,0.01,0.01
7:11:49 PM,1.48,8.77,3.51,0.07,0.11,0.01
7:11:50 PM,0.80,8.90,3.25,0.11,0.08,0.01
7:11:50 PM,1.62,8.81,3.27,0.08,0.02,0.01
7:11:50 PM,1.27,8.81,3.07,0.13,0.19,0.01
7:11:50 PM,0.74,9.17,2.65,0.02,0.06,0.01
7:11:50 PM,0.57,9.04,3.01,0.01,0.08,0.01
7:11:50 PM,1.19,8.87,3.34,-0.01,-0.06,0.01
7:11:50 PM,1.17,8.92,3.06,0.05,-0.04,0.01
7:11:50 PM,1.17,8.91,3.06,0.10,0.15,0.01
7:11:50 PM,0.88,9.11,2.83,0.01,0.06,0.01
7:11:51 PM,0.32,9.28,2.46,-0.02,0.08,0.01
7:11:51 PM,0.91,9.05,3.02,-0.08,-0.08,0.01
7:11:51 PM,1.20,8.85,3.43,-0.05,-0.20,0.01
7:11:51 PM,1.24,8.79,3.51,0.01,-0.08,0.01
7:11:51 PM,0.91,8.85,3.42,0.02,0.00,0.01
7:11:51 PM,1.44,8.77,3.42,-0.01,-0.06,0.01
7:11:51 PM,0.94,8.88,3.62,0.10,0.02,0.01
7:11:51 PM,1.40,8.71,3.46,0.04,0.05,0.01
7:11:51 PM,1.50,8.71,3.70,0.03,0.01,0.01
7:11:51 PM,1.53,8.47,3.84,0.03,-0.01,0.01
7:11:52 PM,1.27,8.52,3.91,-0.09,-0.21,0.01
7:11:52 PM,1.00,8.91,3.38,0.01,0.01,0.01
7:11:52 PM,0.76,8.83,3.70,0.02,-0.06,0.01
7:11:52 PM,1.14,8.69,3.58,-0.04,-0.09,0.01
7:11:52 PM,0.84,8.86,3.56,-0.11,-0.24,0.01
7:11:52 PM,0.78,8.81,3.31,-0.09,-0.12,0.01
7:11:52 PM,0.65,8.83,3.44,-0.01,-0.02,0.01
7:11:52 PM,1.07,9.01,3.11,0.08,0.06,0.01
7:11:52 PM,0.79,8.93,3.34,-0.04,-0.04,0.01
7:11:53 PM,0.97,8.80,3.43,0.02,-0.10,0.01
7:11:53 PM,1.06,8.88,3.29,-0.04,-0.10,0.01
7:11:53 PM,0.68,8.88,3.37,0.00,0.01,0.01
7:11:53 PM,0.68,8.99,3.23,0.03,0.09,0.01
7:11:53 PM,0.50,8.99,3.00,0.04,0.03,0.01
7:11:53 PM,0.89,8.91,2.98,0.00,-0.01,0.01
7:11:53 PM,0.78,9.05,3.08,-0.06,0.03,0.01
7:11:53 PM,0.84,9.07,3.14,-0.04,-0.11,0.01
7:11:53 PM,0.67,9.20,2.83,0.10,0.13,0.01
7:11:53 PM,0.81,8.91,3.14,0.05,0.10,0.01
7:11:54 PM,0.95,8.93,2.95,0.02,0.04,0.01
7:11:54 PM,0.73,9.13,2.77,0.03,0.03,0.01
7:11:54 PM,0.62,9.03,3.12,-0.03,-0.04,0.01
7:11:54 PM,0.68,8.86,3.48,-0.03,-0.03,0.01
7:11:54 PM,1.40,8.79,3.49,-0.06,-0.15,0.01
7:11:54 PM,0.72,8.92,3.36,0.01,0.04,0.01
7:11:54 PM,1.08,8.84,3.22,-0.04,-0.02,0.01
7:11:54 PM,1.03,8.93,3.18,0.00,0.03,0.01
7:11:54 PM,0.28,9.07,3.20,-0.03,-0.03,0.01
7:11:55 PM,0.71,8.92,3.43,-0.09,-0.12,0.01
7:11:55 PM,1.14,8.68,3.79,-0.07,-0.19,0.01
7:11:55 PM,0.84,8.91,3.46,-0.02,-0.09,0.01
7:11:55 PM,1.36,8.77,3.80,0.05,0.09,0.01
7:11:55 PM,1.10,8.88,3.26,0.11,0.06,0.01
7:11:55 PM,1.17,8.79,3.16,0.04,-0.00,0.01
7:11:55 PM,0.54,8.81,3.35,0.04,0.07,0.01
7:11:55 PM,0.76,8.81,3.49,0.03,0.03,0.01
7:11:55 PM,0.84,8.92,3.33,-0.05,-0.05,0.01
7:11:55 PM,1.23,8.91,3.56,-0.08,-0.15,0.01
7:11:56 PM,1.02,8.70,3.46,-0.01,0.05,0.01
7:11:56 PM,0.78,8.89,3.58,-0.07,-0.12,0.01
7:11:56 PM,0.72,8.69,3.94,-0.02,-0.06,0.01
7:11:56 PM,1.20,8.65,3.74,0.01,-0.12,0.01
7:11:56 PM,0.98,8.79,3.53,0.09,0.05,0.01
7:11:56 PM,1.05,8.71,3.29,0.06,0.06,0.01
7:11:56 PM,0.97,8.69,3.40,-0.03,-0.02,0.01
7:11:56 PM,1.13,8.74,3.49,0.01,0.01,0.01
7:11:56 PM,0.76,8.92,3.15,0.08,0.13,0.01
7:11:57 PM,0.71,8.98,3.19,0.08,0.12,0.01
7:11:57 PM,0.96,8.88,3.22,0.06,0.03,0.01
7:11:57 PM,1.03,8.84,3.28,0.09,0.15,0.01
7:11:57 PM,0.71,9.01,3.00,0.01,0.06,0.01
7:11:57 PM,0.68,9.07,3.08,-0.01,0.08,0.01
7:11:57 PM,0.57,9.00,3.24,-0.02,-0.05,0.01
7:11:57 PM,0.67,8.81,3.39,-0.04,-0.08,0.01
7:11:57 PM,1.13,8.77,3.68,-0.00,0.00,0.01
7:11:57 PM,1.00,8.80,3.48,0.02,-0.10,0.01
7:11:58 PM,0.83,8.76,3.48,0.03,0.01,0.01
7:11:58 PM,1.45,8.78,3.46,-0.02,-0.02,0.01
7:11:58 PM,0.75,8.96,3.15,0.04,0.10,0.01
7:11:58 PM,0.74,8.80,3.64,-0.05,-0.09,0.01
7:11:58 PM,0.70,8.94,3.39,0.02,-0.00,0.01
7:11:58 PM,0.79,8.90,3.33,0.03,0.03,0.01
7:11:58 PM,0.97,8.79,3.37,0.02,0.08,0.01
7:11:58 PM,0.80,8.90,3.26,0.04,0.04,0.01
7:11:58 PM,0.84,8.60,3.75,-0.00,-0.01,0.01
7:11:58 PM,0.57,8.88,3.50,0.01,0.05,0.01
7:11:59 PM,1.00,8.55,4.04,0.01,-0.08,0.01
7:11:59 PM,0.80,8.67,3.73,0.02,-0.06,0.01
7:11:59 PM,1.14,8.71,3.74,0.04,-0.01,0.01
7:11:59 PM,1.38,8.60,3.74,0.06,-0.10,0.01
7:11:59 PM,1.17,8.87,3.17,0.09,0.08,0.01
7:11:59 PM,0.63,8.85,3.24,0.03,-0.01,0.01
7:11:59 PM,0.33,9.02,3.00,0.01,0.03,0.01
7:11:59 PM,0.34,9.00,3.33,0.00,0.07,0.01
7:11:59 PM,0.93,8.68,3.60,-0.03,-0.07,0.01
7:12:00 PM,1.02,8.65,3.91,0.02,-0.16,0.01
7:12:00 PM,0.71,8.75,3.39,-0.01,-0.07,0.01
7:12:00 PM,0.92,8.79,3.73,-0.03,-0.07,0.01
7:12:00 PM,0.62,8.66,3.55,0.02,0.07,0.01
7:12:00 PM,0.91,8.63,3.65,0.02,0.03,0.01
7:12:00 PM,1.17,8.60,3.85,-0.03,-0.07,0.01
7:12:00 PM,1.43,8.72,3.65,-0.00,-0.05,0.01
7:12:00 PM,1.10,8.58,3.74,0.05,-0.00,0.01
7:12:00 PM,1.20,8.73,3.54,0.09,0.07,0.01
7:12:00 PM,1.15,8.62,3.44,0.10,0.15,0.01
7:12:01 PM,0.99,8.85,3.19,0.13,0.20,0.01
7:12:01 PM,1.00,8.95,3.14,0.04,0.04,0.01
7:12:01 PM,0.78,9.02,3.05,-0.07,-0.11,0.01
7:12:01 PM,0.31,8.77,3.45,-0.03,-0.01,0.01
7:12:01 PM,0.59,8.83,3.37,-0.02,-0.01,0.01
7:12:01 PM,0.55,8.83,3.45,-0.02,-0.03,0.01
7:12:01 PM,0.71,8.86,3.52,0.06,0.08,0.01
7:12:01 PM,0.96,8.84,3.33,0.08,0.08,0.01
7:12:01 PM,1.01,8.80,3.36,0.03,0.06,0.01
7:12:02 PM,1.32,8.72,3.40,-0.02,-0.05,0.01
7:12:02 PM,0.53,8.88,3.59,-0.04,-0.12,0.01
7:12:02 PM,0.71,9.04,3.35,0.10,0.12,0.01
7:12:02 PM,0.83,8.74,3.62,0.01,0.00,0.01
7:12:02 PM,1.16,8.74,3.67,0.05,-0.01,0.01
7:12:02 PM,0.81,8.82,3.60,0.01,-0.04,0.01
7:12:02 PM,0.44,8.90,3.71,-0.02,-0.15,0.01
7:12:02 PM,0.69,8.84,3.48,-0.03,-0.03,0.01
7:12:02 PM,1.14,8.74,3.49,0.02,-0.05,0.01
7:12:02 PM,1.22,8.62,3.65,-0.02,-0.01,0.01
7:12:03 PM,1.30,8.59,3.53,-0.02,-0.11,0.01
7:12:03 PM,0.91,8.90,3.35,0.04,0.08,0.01
7:12:03 PM,0.70,8.99,3.18,-0.06,-0.01,0.01
7:12:03 PM,0.57,8.94,3.50,-0.14,-0.09,0.01
7:12:03 PM,1.17,8.60,4.18,-0.09,-0.20,0.01
7:12:03 PM,1.86,8.61,4.04,0.13,0.04,0.01
7:12:03 PM,1.67,8.53,3.50,0.15,0.06,0.01
7:12:03 PM,1.02,8.81,3.18,0.03,0.00,0.01
7:12:03 PM,0.79,8.96,3.27,-0.01,0.02,0.01
7:12:04 PM,0.32,8.84,3.39,-0.02,0.10,0.01
7:12:04 PM,0.78,8.91,3.35,0.00,-0.02,0.01
7:12:04 PM,0.74,8.89,3.08,-0.01,-0.09,0.01
7:12:04 PM,0.22,9.04,3.19,-0.07,0.03,0.01
7:12:04 PM,0.72,8.81,3.58,-0.09,-0.02,0.01
7:12:04 PM,1.19,8.74,3.74,-0.04,-0.10,0.01
7:12:04 PM,1.19,8.60,3.85,-0.05,-0.12,0.01
7:12:04 PM,1.72,8.56,3.93,-0.00,-0.15,0.01
7:12:04 PM,1.00,8.57,3.85,0.04,0.02,0.01
7:12:04 PM,0.97,8.61,3.58,-0.01,-0.06,0.01
7:12:05 PM,0.75,8.76,3.53,0.02,0.07,0.01
7:12:05 PM,0.98,8.77,3.45,0.09,0.11,0.01
7:12:05 PM,1.14,8.72,3.44,0.04,0.07,0.01
7:12:05 PM,0.61,8.86,3.31,0.04,0.03,0.01
7:12:05 PM,0.99,8.82,3.41,-0.03,-0.02,0.01
7:12:05 PM,0.42,8.79,3.54,0.05,0.14,0.01
7:12:05 PM,0.78,8.81,3.71,0.01,-0.06,0.01
7:12:05 PM,0.83,8.75,3.53,0.01,-0.01,0.01
7:12:05 PM,0.53,8.92,3.06,-0.04,-0.01,0.01
7:12:06 PM,0.85,8.83,3.46,0.03,-0.03,0.01
7:12:06 PM,1.16,8.47,3.89,0.01,0.02,0.01
7:12:06 PM,0.55,8.72,3.71,0.07,0.22,0.01
7:12:06 PM,0.26,8.80,3.66,0.04,0.05,0.01
7:12:06 PM,0.81,8.72,3.53,-0.00,0.04,0.01
7:12:06 PM,1.05,8.59,3.62,0.03,0.18,0.01
7:12:06 PM,0.61,8.87,3.29,0.04,-0.01,0.01
7:12:06 PM,0.60,8.89,3.38,-0.02,-0.02,0.01
7:12:06 PM,0.48,8.86,3.30,-0.05,-0.00,0.01
7:12:06 PM,0.86,8.87,3.51,-0.03,-0.02,0.01
7:12:07 PM,0.79,8.76,3.50,0.03,0.04,0.01
7:12:07 PM,0.20,8.92,3.34,-0.01,0.11,0.01
7:12:07 PM,0.73,8.73,3.65,-0.07,-0.04,0.01
7:12:07 PM,0.85,8.55,4.03,-0.02,-0.01,0.01
7:12:07 PM,0.61,8.64,3.79,0.04,-0.02,0.01
7:12:07 PM,1.07,8.65,3.83,-0.01,-0.17,0.01
7:12:07 PM,0.70,8.81,3.47,0.07,0.13,0.01
7:12:07 PM,0.60,8.92,3.20,0.03,0.02,0.01
7:12:07 PM,0.66,8.97,3.20,0.02,0.00,0.01
7:12:08 PM,0.88,8.79,3.30,0.03,-0.00,0.01
7:12:08 PM,0.83,8.87,3.30,0.01,-0.06,0.01
7:12:08 PM,0.82,8.58,3.87,0.06,0.03,0.01
7:12:08 PM,0.77,8.63,3.58,0.10,0.07,0.01
7:12:08 PM,0.91,8.72,3.44,0.03,0.03,0.01
7:12:08 PM,0.57,8.84,3.36,-0.00,-0.07,0.01
7:12:08 PM,0.98,8.69,3.68,-0.04,-0.04,0.01
7:12:08 PM,1.02,8.76,3.60,-0.02,-0.04,0.01
7:12:08 PM,0.48,8.68,3.82,-0.03,-0.02,0.01
7:12:08 PM,0.72,8.51,3.95,-0.04,-0.03,0.01
7:12:09 PM,0.89,8.56,4.00,-0.04,-0.08,0.01
7:12:09 PM,1.28,8.43,4.08,0.03,-0.09,0.01
7:12:09 PM,1.29,8.67,3.77,0.02,-0.11,0.01
7:12:09 PM,0.71,8.68,3.71,-0.00,-0.00,0.01
7:12:09 PM,0.50,8.87,3.43,-0.03,0.01,0.01
7:12:09 PM,0.75,8.84,3.51,-0.05,-0.07,0.01
7:12:09 PM,0.93,8.58,3.96,-0.02,-0.03,0.01
7:12:09 PM,1.02,8.45,4.15,-0.05,-0.01,0.01
7:12:09 PM,1.59,8.31,4.25,-0.03,-0.10,0.01
7:12:10 PM,1.47,8.48,3.95,-0.00,-0.23,0.01
7:12:10 PM,0.68,8.56,4.13,0.04,-0.05,0.01
7:12:10 PM,1.28,8.82,3.51,0.12,0.10,0.01
7:12:10 PM,1.01,8.66,3.52,0.07,0.10,0.01
7:12:10 PM,1.07,8.74,3.52,0.09,-0.01,0.01
7:12:10 PM,0.72,8.79,3.67,0.09,0.06,0.01
7:12:10 PM,0.88,8.62,3.59,0.08,0.02,0.01
7:12:10 PM,1.23,8.55,3.87,0.06,-0.02,0.01
7:12:10 PM,0.89,8.67,3.71,0.06,0.01,0.01
7:12:11 PM,0.96,8.57,3.63,0.12,0.06,0.01
7:12:11 PM,1.15,8.53,3.78,0.00,-0.01,0.01
7:12:11 PM,0.87,8.71,3.53,0.06,0.11,0.01
7:12:11 PM,0.74,8.92,3.32,0.05,0.10,0.01
7:12:11 PM,0.83,9.00,3.19,-0.06,-0.12,0.01
7:12:11 PM,0.39,8.97,3.35,-0.11,-0.08,0.01
7:12:11 PM,0.07,8.91,3.62,-0.08,-0.10,0.01
7:12:11 PM,0.94,8.75,3.73,0.07,0.08,0.01
7:12:11 PM,0.84,8.63,3.69,0.03,0.06,0.01
7:12:11 PM,1.40,8.55,3.76,0.01,-0.05,0.01
7:12:12 PM,1.21,8.59,3.70,-0.03,-0.15,0.01
7:12:12 PM,0.56,8.84,3.40,0.04,-0.03,0.01
7:12:12 PM,0.70,8.72,3.33,0.04,0.05,0.01
7:12:12 PM,0.77,8.89,3.27,-0.01,0.11,0.01
7:12:12 PM,0.57,8.82,3.55,0.01,0.00,0.01
7:12:12 PM,0.84,8.83,3.42,-0.03,0.02,0.01
7:12:12 PM,0.91,8.73,3.55,-0.03,-0.04,0.01
7:12:12 PM,1.00,8.77,3.71,-0.02,-0.12,0.01
7:12:12 PM,0.77,8.78,3.58,-0.05,-0.08,0.01
7:12:13 PM,1.04,8.44,3.89,0.05,-0.08,0.01
7:12:13 PM,0.48,8.60,3.49,0.02,0.05,0.01
7:12:13 PM,1.02,8.61,3.83,0.06,0.05,0.01
7:12:13 PM,1.03,8.60,3.82,-0.10,-0.13,0.01
7:12:13 PM,0.85,8.61,3.92,0.03,-0.06,0.01
7:12:13 PM,0.03,7.91,4.24,0.06,0.08,0.01
7:12:13 PM,1.24,8.46,4.22,-0.02,-0.09,0.01
7:12:13 PM,0.93,8.50,3.81,0.03,-0.10,0.01
7:12:13 PM,0.44,8.83,3.64,0.04,-0.06,0.01
7:12:13 PM,0.71,8.61,3.86,-0.02,-0.02,0.01
7:12:14 PM,0.82,8.56,3.82,0.00,0.04,0.01
7:12:14 PM,0.76,8.67,3.91,-0.06,-0.07,0.01
7:12:14 PM,0.74,8.55,3.99,-0.03,-0.07,0.01
7:12:14 PM,0.74,8.53,3.96,0.01,-0.06,0.01
7:12:14 PM,0.60,8.62,3.93,0.02,-0.08,0.01
7:12:14 PM,0.69,8.84,3.50,0.02,-0.03,0.01
7:12:14 PM,0.33,8.80,3.64,-0.03,0.01,0.01
7:12:14 PM,1.01,8.58,4.00,-0.06,-0.05,0.01
7:12:14 PM,0.88,8.57,4.05,0.06,-0.04,0.01
7:12:15 PM,0.83,8.57,4.11,0.05,-0.10,0.01
7:12:15 PM,0.77,8.53,4.12,0.10,-0.03,0.01
7:12:15 PM,0.90,8.66,3.79,0.13,-0.08,0.01
7:12:15 PM,0.90,8.81,3.49,0.07,-0.01,0.01
7:12:15 PM,1.14,8.60,3.67,0.11,0.09,0.01
7:12:15 PM,0.90,8.58,3.67,0.03,-0.01,0.01
7:12:15 PM,0.75,8.88,3.41,0.02,0.05,0.01
7:12:15 PM,0.64,8.94,3.27,0.01,-0.02,0.01
7:12:15 PM,0.72,8.74,3.73,0.01,-0.11,0.01
7:12:15 PM,0.66,8.77,3.65,0.02,0.02,0.01
7:12:16 PM,1.05,8.70,3.67,-0.02,-0.08,0.01
7:12:16 PM,1.09,8.62,3.54,-0.01,-0.10,0.01
7:12:16 PM,0.97,8.74,3.52,0.01,-0.01,0.01
7:12:16 PM,0.88,8.67,3.61,-0.00,-0.03,0.01
7:12:16 PM,0.90,8.74,3.42,0.08,-0.05,0.01
7:12:16 PM,0.76,8.78,3.37,0.05,0.06,0.01
7:12:16 PM,0.51,9.07,3.00,0.03,0.04,0.01
7:12:16 PM,0.23,9.09,3.05,0.08,0.04,0.01
7:12:16 PM,1.23,8.75,3.42,0.05,0.14,0.01
7:12:17 PM,0.93,8.87,3.45,-0.06,-0.09,0.01
7:12:17 PM,0.59,8.90,3.47,-0.03,-0.08,0.01
7:12:17 PM,0.28,8.66,3.97,-0.02,-0.03,0.01
7:12:17 PM,1.09,8.38,4.31,-0.00,0.00,0.01
7:12:17 PM,0.97,8.49,4.26,-0.05,-0.13,0.01
7:12:17 PM,0.87,8.66,3.69,0.03,-0.04,0.01
7:12:17 PM,0.93,8.28,4.08,0.40,0.05,0.01
7:12:17 PM,0.14,9.26,3.03,1.05,0.46,0.01
7:12:17 PM,0.49,9.50,1.51,0.14,-0.17,0.01
7:12:17 PM,0.85,9.27,2.44,0.27,0.11,0.01
7:12:18 PM,-0.05,9.54,1.87,0.57,0.16,0.01
7:12:18 PM,-0.22,9.99,1.05,0.55,0.13,0.01
7:12:18 PM,-0.21,9.92,0.62,0.25,-0.06,0.01
7:12:18 PM,0.22,9.82,1.39,-0.01,-0.18,0.01
7:12:18 PM,0.12,9.84,1.28,0.09,0.03,0.01
7:12:18 PM,0.56,9.85,0.30,0.00,-0.06,0.01
7:12:18 PM,0.25,9.81,0.30,0.01,0.06,0.01
7:12:18 PM,0.35,10.13,0.35,-0.03,-0.03,0.01
7:12:18 PM,0.95,9.59,0.55,0.00,0.05,0.01
7:12:19 PM,0.05,10.02,0.59,-0.02,0.04,0.01
7:12:19 PM,0.48,9.75,0.54,-0.01,0.02,0.01
7:12:19 PM,0.23,10.05,0.09,-0.04,0.02,0.01
7:12:19 PM,0.49,9.88,0.48,0.10,0.08,0.01
7:12:19 PM,0.55,9.70,0.73,-0.00,-0.01,0.01
7:12:19 PM,0.23,9.68,1.09,-0.09,-0.06,0.01
7:12:19 PM,0.22,9.82,1.01,0.01,-0.02,0.01
7:12:19 PM,0.39,9.83,0.78,-0.03,-0.00,0.01
7:12:19 PM,0.25,9.68,1.32,-0.09,0.03,0.01
7:12:19 PM,0.08,9.82,1.07,-0.08,-0.02,0.01
7:12:20 PM,0.56,9.71,1.13,-0.12,-0.11,0.01
7:12:20 PM,0.40,9.60,1.44,-0.06,-0.02,0.01
7:12:20 PM,0.51,9.62,1.19,-0.06,-0.05,0.01
7:12:20 PM,0.48,9.35,0.82,-0.14,0.00,0.01
7:12:20 PM,0.29,9.76,1.26,-0.04,0.02,0.01
7:12:20 PM,0.70,9.55,1.79,0.00,-0.08,0.01
7:12:20 PM,1.05,9.54,1.88,0.12,0.01,0.01
7:12:20 PM,0.91,9.56,1.72,0.05,-0.11,0.01
7:12:20 PM,0.64,9.57,1.39,0.14,-0.00,0.01
7:12:21 PM,1.02,9.54,1.36,0.12,0.06,0.01
7:12:21 PM,0.82,9.49,1.55,0.02,-0.06,0.01
7:12:21 PM,0.62,9.58,1.47,-0.18,0.02,0.01
7:12:21 PM,0.49,9.51,1.54,-0.06,-0.09,0.01
7:12:21 PM,0.23,9.67,1.84,-0.06,0.00,0.01
7:12:21 PM,0.56,9.54,1.89,-0.08,-0.09,0.01
7:12:21 PM,0.49,9.18,2.39,0.01,-0.07,0.01
7:12:21 PM,0.38,9.53,1.93,-0.03,-0.04,0.01
7:12:21 PM,0.57,9.46,2.47,-0.01,-0.05,0.01
7:12:22 PM,0.57,9.62,2.29,-0.07,-0.21,0.01
7:12:22 PM,0.63,9.35,2.21,-0.04,-0.11,0.01
7:12:22 PM,1.29,9.43,1.75,-0.06,-0.18,0.01
7:12:22 PM,0.45,9.64,1.83,-0.00,-0.01,0.01
7:12:22 PM,0.43,9.60,1.53,-0.01,0.03,0.01
7:12:22 PM,0.51,9.62,1.81,-0.05,-0.10,0.01
7:12:22 PM,0.83,9.47,1.93,-0.06,-0.11,0.01
7:12:22 PM,0.42,9.82,1.27,-0.06,-0.02,0.01
7:12:22 PM,0.53,9.71,1.22,0.09,0.11,0.01
7:12:22 PM,0.35,9.54,1.63,0.07,0.07,0.01
7:12:23 PM,0.50,9.69,1.58,-0.08,-0.04,0.01
7:12:23 PM,0.23,9.61,1.67,0.06,0.06,0.01
7:12:23 PM,0.59,9.51,1.91,-0.06,-0.03,0.01
7:12:23 PM,0.60,9.50,2.07,-0.01,-0.08,0.01
7:12:23 PM,0.47,9.60,1.76,0.00,-0.03,0.01
7:12:23 PM,0.62,9.48,1.82,0.02,-0.01,0.01
7:12:23 PM,0.74,9.44,2.26,-0.01,-0.02,0.01
7:12:23 PM,1.02,9.31,2.00,0.08,0.02,0.01
7:12:23 PM,1.08,9.46,1.59,0.00,-0.01,0.01
7:12:24 PM,0.27,9.75,1.51,-0.10,-0.09,0.01
7:12:24 PM,0.09,9.76,1.73,-0.09,0.07,0.01
7:12:24 PM,0.99,9.43,2.11,-0.02,0.05,0.01
7:12:24 PM,0.80,9.33,2.55,-0.03,-0.09,0.01
7:12:24 PM,0.04,9.26,2.31,-0.13,-0.14,0.01
7:12:24 PM,0.34,9.27,2.56,-0.11,-0.01,0.01
7:12:24 PM,0.74,9.28,2.69,-0.04,0.08,0.01
7:12:24 PM,1.01,9.12,2.74,-0.07,-0.06,0.01
7:12:24 PM,0.78,9.07,2.85,-0.06,-0.08,0.01
7:12:24 PM,0.72,9.31,2.40,0.07,0.01,0.01
7:12:25 PM,1.07,9.25,2.31,0.14,0.10,0.01
7:12:25 PM,0.38,9.33,2.39,0.07,0.03,0.01
7:12:25 PM,0.74,9.36,2.28,0.03,0.04,0.01
7:12:25 PM,0.80,9.32,2.21,0.04,0.05,0.01
7:12:25 PM,0.62,9.11,2.75,0.00,-0.07,0.01
7:12:25 PM,0.49,9.14,2.87,0.02,-0.03,0.01
7:12:25 PM,0.67,9.07,2.89,-0.04,-0.07,0.01
7:12:25 PM,0.62,9.23,2.72,0.00,-0.04,0.01
7:12:25 PM,0.22,9.38,2.55,-0.06,-0.07,0.01
7:12:26 PM,0.29,9.39,2.54,0.01,0.01,0.01
7:12:26 PM,1.20,9.09,2.98,0.14,-0.09,0.01
7:12:26 PM,1.35,9.17,2.64,0.04,-0.13,0.01
7:12:26 PM,0.85,9.40,2.17,0.05,-0.08,0.01
7:12:26 PM,0.69,9.37,1.96,0.10,0.04,0.01
7:12:26 PM,0.96,9.33,2.14,0.10,0.04,0.01
7:12:26 PM,1.08,9.28,2.29,0.16,-0.00,0.01
7:12:26 PM,1.27,9.15,2.23,0.07,-0.01,0.01
7:12:26 PM,0.88,9.35,2.12,0.10,0.08,0.01
7:12:26 PM,1.13,9.28,2.09,0.07,0.09,0.01
7:12:27 PM,0.68,9.40,2.00,0.07,0.06,0.01
7:12:27 PM,0.88,9.19,2.12,0.07,0.11,0.01
7:12:27 PM,0.79,9.45,1.97,0.05,0.07,0.01
7:12:27 PM,0.83,9.44,1.89,0.10,0.09,0.01
7:12:27 PM,0.51,9.51,1.61,0.04,0.09,0.01
7:12:27 PM,0.39,9.53,1.79,-0.04,0.02,0.01
7:12:27 PM,0.16,9.52,1.97,-0.02,0.01,0.01
7:12:27 PM,0.23,9.39,2.02,-0.06,-0.07,0.01
7:12:27 PM,0.06,9.44,2.10,0.01,0.09,0.01
7:12:28 PM,0.46,9.44,2.24,-0.00,-0.06,0.01
7:12:28 PM,0.68,9.33,2.49,0.00,-0.10,0.01
7:12:28 PM,0.74,9.30,2.91,-0.05,-0.11,0.01
7:12:28 PM,0.06,9.41,3.11,-0.05,-0.07,0.01
7:12:28 PM,0.62,9.08,3.26,0.02,-0.03,0.01
7:12:28 PM,0.85,9.14,3.16,0.10,-0.11,0.01
7:12:28 PM,0.49,9.24,2.96,0.03,-0.18,0.01
7:12:28 PM,0.69,9.29,2.84,0.07,-0.08,0.01
7:12:28 PM,0.56,9.30,2.57,0.14,-0.04,0.01
7:12:28 PM,1.02,9.38,2.61,0.09,-0.11,0.01
7:12:29 PM,1.01,9.31,2.78,0.05,-0.06,0.01
7:12:29 PM,0.15,9.28,2.62,0.03,-0.06,0.01
7:12:29 PM,0.73,8.92,3.19,0.06,-0.14,0.01
7:12:29 PM,0.92,9.21,2.47,-0.15,-0.13,0.01
7:12:29 PM,0.52,9.33,2.43,-0.06,-0.12,0.01
7:12:29 PM,0.52,9.46,2.30,0.08,-0.09,0.01
7:12:29 PM,0.91,9.29,2.23,0.10,0.07,0.01
7:12:29 PM,0.73,9.22,2.33,0.01,-0.07,0.01
7:12:29 PM,0.66,9.28,2.38,0.12,0.07,0.01
7:12:30 PM,0.73,9.48,2.21,0.11,0.12,0.01
7:12:30 PM,1.02,9.38,2.17,0.05,-0.05,0.01
7:12:30 PM,0.88,9.38,2.15,0.06,-0.02,0.01
7:12:30 PM,0.82,9.38,2.23,0.05,-0.05,0.01
7:12:30 PM,0.71,9.39,1.94,0.05,-0.03,0.01
7:12:30 PM,0.51,9.52,1.95,0.10,0.12,0.01
7:12:30 PM,0.86,9.49,2.13,0.10,0.03,0.01
7:12:30 PM,0.65,9.50,2.21,0.07,0.07,0.01
7:12:30 PM,0.84,9.01,2.90,0.01,-0.15,0.01
7:12:30 PM,0.93,9.23,2.80,0.13,0.02,0.01
7:12:31 PM,0.72,9.35,2.43,0.09,0.01,0.01
7:12:31 PM,0.44,9.30,2.26,-0.07,-0.04,0.01
7:12:31 PM,0.40,9.66,1.78,-0.05,-0.01,0.01
7:12:31 PM,0.11,9.69,1.95,-0.06,-0.01,0.01
7:12:31 PM,0.03,9.59,1.90,-0.05,0.06,0.01
7:12:31 PM,-0.03,9.36,2.36,-0.07,-0.03,0.01
7:12:31 PM,0.33,9.41,2.32,0.01,0.06,0.01
7:12:31 PM,0.64,9.40,2.14,-0.00,-0.05,0.01
7:12:31 PM,0.57,9.33,2.21,-0.04,-0.07,0.01
7:12:32 PM,0.57,9.45,2.27,-0.02,-0.02,0.01
7:12:32 PM,0.39,9.36,2.39,0.04,0.01,0.01
7:12:32 PM,0.52,9.41,2.16,0.01,0.04,0.01
7:12:32 PM,1.05,9.55,1.84,-0.03,-0.17,0.01
7:12:32 PM,0.73,9.40,2.32,-0.12,-0.20,0.01
7:12:32 PM,0.35,9.46,1.92,-0.04,-0.06,0.01
7:12:32 PM,0.42,9.48,2.15,-0.05,-0.06,0.01
7:12:32 PM,0.34,9.46,2.17,-0.00,0.02,0.01
7:12:32 PM,0.28,9.41,2.21,0.00,0.03,0.01
7:12:32 PM,0.55,9.46,2.13,0.02,0.01,0.01
7:12:33 PM,0.26,9.45,2.13,0.01,-0.00,0.01
7:12:33 PM,0.09,9.52,1.82,0.05,0.09,0.01
7:12:33 PM,0.12,9.61,1.67,0.02,0.04,0.01
7:12:33 PM,0.69,9.40,2.12,0.02,0.07,0.01
7:12:33 PM,0.54,9.40,2.20,-0.03,-0.08,0.01
7:12:33 PM,-0.09,9.50,2.19,0.01,-0.01,0.01
7:12:33 PM,0.21,9.48,2.13,0.06,0.09,0.01
7:12:33 PM,0.50,9.40,2.34,0.08,-0.01,0.01
7:12:33 PM,0.72,9.28,2.64,0.04,-0.02,0.01
7:12:34 PM,0.76,9.20,2.72,0.01,-0.11,0.01
7:12:34 PM,0.25,9.25,2.67,-0.01,-0.02,0.01
7:12:34 PM,0.24,9.36,2.55,-0.04,-0.06,0.01
7:12:34 PM,0.56,9.14,2.98,0.02,-0.02,0.01
7:12:34 PM,0.69,9.22,2.73,-0.04,-0.09,0.01
7:12:34 PM,0.41,9.29,2.60,-0.02,-0.09,0.01
7:12:34 PM,0.24,9.28,2.64,-0.05,-0.09,0.01
7:12:34 PM,0.32,9.33,2.49,0.01,0.02,0.01
7:12:34 PM,0.41,9.40,2.48,0.01,-0.04,0.01
7:12:35 PM,0.18,9.50,2.28,-0.02,-0.00,0.01
7:12:35 PM,0.29,9.37,2.33,-0.07,-0.05,0.01
7:12:35 PM,0.01,9.45,2.30,-0.15,-0.12,0.01
7:12:35 PM,-0.24,9.66,2.11,-0.01,-0.03,0.01
7:12:35 PM,-0.03,9.63,1.91,-0.09,0.03,0.01
7:12:35 PM,0.43,9.29,2.56,-0.10,-0.07,0.01
7:12:35 PM,0.43,9.34,2.65,-0.09,-0.17,0.01
7:12:35 PM,0.06,9.29,2.67,-0.01,-0.04,0.01
7:12:35 PM,0.40,8.93,2.29,-0.09,-0.08,0.01
7:12:35 PM,0.32,9.34,2.41,0.07,0.00,0.01
7:12:36 PM,0.45,9.33,2.39,0.07,-0.01,0.01
7:12:36 PM,0.15,9.57,1.89,0.10,0.07,0.01
7:12:36 PM,0.25,9.56,1.87,0.02,0.02,0.01
7:12:36 PM,0.46,9.40,2.21,0.00,0.02,0.01
7:12:36 PM,0.49,9.33,2.50,-0.05,-0.07,0.01
7:12:36 PM,0.27,9.36,2.70,-0.07,-0.03,0.01
7:12:36 PM,0.14,9.21,2.85,-0.03,-0.09,0.01
7:12:36 PM,0.24,9.17,2.89,0.04,-0.05,0.01
7:12:36 PM,0.30,9.11,2.95,0.01,-0.04,0.01
7:12:37 PM,0.50,9.24,2.47,-0.05,-0.06,0.01
7:12:37 PM,0.26,9.48,2.09,-0.13,-0.12,0.01
7:12:37 PM,-0.08,9.55,2.23,-0.05,-0.04,0.01
7:12:37 PM,0.17,9.69,1.98,-0.05,-0.05,0.01
7:12:37 PM,0.03,9.55,1.98,0.03,0.09,0.01
7:12:37 PM,0.26,9.55,2.11,0.03,0.02,0.01
7:12:37 PM,0.46,9.36,2.37,0.01,0.00,0.01
7:12:37 PM,0.42,9.50,2.26,0.08,0.00,0.01
7:12:37 PM,0.10,9.50,2.11,0.05,0.06,0.01
7:12:37 PM,0.35,9.35,2.53,-0.03,-0.06,0.01
7:12:38 PM,0.17,9.30,2.41,0.02,-0.03,0.01
7:12:38 PM,0.11,9.46,2.33,0.07,0.01,0.01
7:12:38 PM,0.51,9.28,2.62,0.04,0.02,0.01
7:12:38 PM,0.38,9.31,2.51,0.05,0.01,0.01
7:12:38 PM,0.51,9.27,2.56,0.01,-0.03,0.01
7:12:38 PM,0.46,9.32,2.36,0.04,-0.02,0.01
7:12:38 PM,0.44,9.42,2.18,-0.00,-0.05,0.01
7:12:38 PM,0.16,9.20,2.75,-0.10,-0.07,0.01
7:12:39 PM,0.09,9.13,2.97,-0.04,-0.08,0.01
7:12:39 PM,0.31,9.28,2.97,0.02,-0.07,0.01
7:12:39 PM,0.36,9.14,2.94,0.03,-0.03,0.01
7:12:39 PM,0.56,9.17,2.84,0.06,-0.04,0.01
7:12:39 PM,0.81,9.15,2.85,0.03,-0.06,0.01
7:12:39 PM,0.56,9.31,2.53,0.04,-0.07,0.01
7:12:39 PM,0.09,9.28,2.74,-0.05,-0.18,0.01
7:12:39 PM,0.63,9.15,2.92,0.05,-0.04,0.01
7:12:39 PM,0.52,9.32,2.50,0.11,0.09,0.01
7:12:39 PM,0.70,9.40,2.14,0.07,0.03,0.01
7:12:40 PM,0.50,9.28,2.56,-0.07,-0.10,0.01
7:12:40 PM,0.08,9.31,2.52,-0.07,-0.07,0.01
7:12:40 PM,-0.31,9.40,2.55,-0.03,-0.08,0.01
7:12:40 PM,0.12,9.24,2.80,0.03,-0.04,0.01
7:12:40 PM,0.30,9.35,2.59,0.05,-0.01,0.01
7:12:40 PM,0.28,9.21,2.66,0.07,-0.03,0.01
7:12:40 PM,0.35,9.16,2.70,0.03,-0.03,0.01
7:12:40 PM,0.88,9.00,3.19,0.03,-0.19,0.01
7:12:40 PM,0.74,9.21,2.71,-0.02,-0.11,0.01
7:12:40 PM,0.72,9.11,2.97,0.07,-0.10,0.01
7:12:41 PM,0.53,9.24,2.65,0.07,-0.08,0.01
7:12:41 PM,0.48,9.32,2.29,0.10,0.07,0.01
7:12:41 PM,0.20,9.36,2.17,0.07,0.00,0.01
7:12:41 PM,0.50,9.26,2.34,-0.01,-0.04,0.01
7:12:41 PM,0.40,9.35,2.59,0.00,-0.01,0.01
7:12:41 PM,0.27,9.30,2.55,-0.01,-0.07,0.01
7:12:41 PM,0.36,9.24,2.42,-0.01,-0.13,0.01
7:12:41 PM,-0.19,9.42,2.31,-0.01,-0.05,0.01
7:12:41 PM,0.05,9.38,2.66,-0.00,-0.01,0.01
7:12:41 PM,0.57,9.25,2.79,0.09,0.04,0.01
7:12:42 PM,0.40,9.23,2.71,0.05,-0.02,0.01
7:12:42 PM,0.51,9.27,2.81,0.05,-0.09,0.01
7:12:42 PM,0.63,9.18,2.77,0.02,-0.11,0.01
7:12:42 PM,0.08,9.36,2.07,0.09,0.10,0.01
7:12:42 PM,0.34,9.40,2.01,0.06,0.07,0.01
7:12:42 PM,0.63,9.35,2.13,-0.05,-0.00,0.01
7:12:42 PM,-0.06,9.39,2.33,-0.04,-0.04,0.01
7:12:42 PM,-0.19,9.47,2.17,-0.04,-0.04,0.01
7:12:42 PM,-0.10,9.48,2.41,-0.06,-0.03,0.01
7:12:43 PM,-0.10,9.19,2.88,-0.09,-0.04,0.01
7:12:43 PM,-0.18,9.36,2.74,-0.09,-0.12,0.01
7:12:43 PM,0.12,9.25,2.72,-0.10,-0.08,0.01
7:12:43 PM,0.11,9.07,3.22,0.01,-0.05,0.01
7:12:43 PM,0.52,9.05,3.27,-0.04,-0.17,0.01
7:12:43 PM,0.15,9.22,3.34,0.03,-0.10,0.01
7:12:43 PM,0.54,9.12,3.12,0.09,-0.04,0.01
7:12:43 PM,0.35,9.31,2.62,0.06,-0.04,0.01
7:12:43 PM,0.30,9.29,2.31,0.05,-0.05,0.01
7:12:43 PM,-0.02,9.34,2.25,0.03,-0.01,0.01
7:12:44 PM,0.34,9.34,2.35,0.09,0.04,0.01
7:12:44 PM,0.17,9.39,1.96,0.11,0.13,0.01
7:12:44 PM,0.07,9.51,1.82,0.09,0.12,0.01
7:12:44 PM,0.29,9.47,1.98,-0.01,0.04,0.01
7:12:44 PM,-0.00,9.48,2.04,-0.01,0.03,0.01
7:12:44 PM,-0.23,9.55,2.18,-0.05,0.03,0.01
7:12:44 PM,-0.13,9.43,2.62,-0.11,-0.03,0.01
7:12:44 PM,0.02,9.14,3.28,-0.03,-0.07,0.01
7:12:44 PM,0.34,9.04,3.12,0.08,0.01,0.01
7:12:45 PM,0.39,9.20,2.87,0.08,-0.01,0.01
7:12:45 PM,0.14,9.45,2.52,0.14,0.06,0.01
7:12:45 PM,0.11,9.32,2.74,0.03,-0.12,0.01
7:12:45 PM,0.52,9.33,2.50,-0.01,-0.11,0.01
7:12:45 PM,0.10,9.50,2.14,-0.03,-0.04,0.01
7:12:45 PM,-0.02,9.46,2.11,-0.01,0.05,0.01
7:12:45 PM,0.06,9.66,1.81,-0.00,-0.03,0.01
7:12:45 PM,0.39,9.22,2.61,-0.01,0.02,0.01
7:12:45 PM,0.09,9.34,2.50,0.07,0.06,0.01
7:12:45 PM,0.46,9.23,2.69,-0.02,-0.10,0.01
7:12:46 PM,0.14,9.36,2.75,0.07,-0.06,0.01
7:12:46 PM,0.25,9.28,2.65,0.00,-0.01,0.01
7:12:46 PM,0.18,9.33,2.73,0.04,-0.01,0.01
7:12:46 PM,0.55,9.17,2.72,0.03,-0.02,0.01
7:12:46 PM,0.56,9.28,2.82,-0.06,-0.17,0.01
7:12:46 PM,0.42,9.06,3.38,-0.02,-0.18,0.01
7:12:46 PM,0.19,9.18,3.08,-0.04,-0.14,0.01
7:12:46 PM,0.11,9.22,2.84,-0.06,-0.11,0.01
7:12:46 PM,0.06,9.21,2.96,-0.08,-0.09,0.01
7:12:47 PM,0.15,9.29,2.72,-0.05,-0.13,0.01
7:12:47 PM,0.07,9.10,2.91,-0.14,-0.14,0.01
7:12:47 PM,-0.41,9.11,3.03,-0.12,-0.14,0.01
7:12:47 PM,-0.23,9.25,3.10,-0.01,-0.06,0.01
7:12:47 PM,-0.08,9.35,2.64,-0.07,-0.11,0.01
7:12:47 PM,-0.16,9.35,2.65,-0.09,-0.12,0.01
7:12:47 PM,-0.38,9.16,3.03,-0.11,-0.14,0.01
7:12:47 PM,-0.32,9.17,3.19,0.01,-0.14,0.01
7:12:47 PM,0.03,9.42,2.72,0.09,0.08,0.01
7:12:48 PM,0.28,9.38,2.60,0.00,-0.02,0.01
7:12:48 PM,-0.02,9.45,2.45,0.06,-0.00,0.01
7:12:48 PM,-0.14,9.48,2.22,0.07,0.07,0.01
7:12:48 PM,-0.32,9.48,2.33,0.01,0.07,0.01
7:12:48 PM,0.09,9.36,2.65,0.00,0.01,0.01
7:12:48 PM,0.22,9.08,3.05,-0.05,-0.08,0.01
7:12:48 PM,0.02,9.10,3.04,0.01,-0.05,0.01
7:12:48 PM,0.20,9.28,2.92,0.03,-0.04,0.01
7:12:48 PM,0.14,9.15,2.76,-0.02,-0.11,0.01
7:12:48 PM,0.11,9.25,2.62,-0.02,-0.00,0.01
7:12:49 PM,0.14,9.23,2.89,-0.09,-0.14,0.01
7:12:49 PM,0.05,9.24,2.75,0.01,-0.01,0.01
7:12:49 PM,0.09,9.20,2.89,-0.04,-0.04,0.01
7:12:49 PM,0.21,9.16,3.18,-0.05,-0.16,0.01
7:12:49 PM,0.11,9.20,2.99,0.03,-0.07,0.01
7:12:49 PM,-0.16,9.12,3.17,-0.02,-0.12,0.01
7:12:49 PM,0.02,9.12,3.14,-0.03,-0.05,0.01
7:12:49 PM,0.13,9.10,3.20,-0.05,-0.13,0.01
7:12:49 PM,-0.16,9.14,3.10,-0.07,-0.15,0.01
7:12:50 PM,-0.29,9.27,2.85,-0.05,-0.03,0.01
7:12:50 PM,-0.14,9.27,2.70,-0.06,-0.09,0.01
7:12:50 PM,0.05,9.15,3.17,-0.05,-0.11,0.01
7:12:50 PM,0.32,9.12,3.44,0.03,-0.10,0.01
7:12:50 PM,0.22,9.14,3.04,0.04,-0.04,0.01
7:12:50 PM,0.24,9.17,3.12,0.03,-0.06,0.01
7:12:50 PM,0.10,9.23,2.94,0.01,-0.10,0.01
7:12:50 PM,0.06,9.19,2.86,0.02,-0.07,0.01
7:12:50 PM,0.04,9.18,2.87,0.01,-0.09,0.01
7:12:50 PM,-0.08,9.13,2.97,-0.02,-0.09,0.01
7:12:51 PM,0.08,9.13,2.99,-0.01,-0.04,0.01
7:12:51 PM,0.21,9.10,2.95,0.07,-0.00,0.01
7:12:51 PM,0.14,9.26,2.68,0.04,0.02,0.01
7:12:51 PM,0.21,9.19,2.81,0.01,-0.03,0.01
7:12:51 PM,0.08,9.34,2.62,0.02,0.01,0.01
7:12:51 PM,0.08,9.25,2.85,0.01,-0.07,0.01
7:12:51 PM,0.24,9.23,2.73,0.03,-0.03,0.01
7:12:51 PM,0.09,9.17,2.79,-0.02,-0.09,0.01
7:12:51 PM,-0.19,9.30,2.73,0.02,-0.05,0.01
7:12:52 PM,0.44,9.23,2.64,0.01,0.02,0.01
7:12:52 PM,0.22,9.20,2.88,-0.04,-0.15,0.01
7:12:52 PM,-0.56,8.72,3.07,0.03,0.12,0.01
7:12:52 PM,0.02,9.29,2.64,-0.02,0.02,0.01
7:12:52 PM,-0.09,9.27,2.84,0.07,0.04,0.01
7:12:52 PM,-0.01,9.26,2.51,0.02,0.08,0.01
7:12:52 PM,0.06,9.25,2.60,-0.16,-0.02,0.01
7:12:52 PM,-0.47,9.26,2.96,-0.08,-0.14,0.01
7:12:52 PM,-0.26,9.25,3.01,0.04,-0.08,0.01
7:12:52 PM,-0.66,9.32,3.21,-0.02,-0.06,0.01
7:12:53 PM,0.26,9.16,3.21,0.02,-0.08,0.01
7:12:53 PM,0.30,9.12,3.12,0.03,-0.07,0.01
7:12:53 PM,0.34,9.07,3.13,0.04,-0.06,0.01
7:12:53 PM,0.16,8.95,3.17,0.04,-0.11,0.01
7:12:53 PM,0.17,9.18,2.69,0.06,-0.02,0.01
7:12:53 PM,0.19,9.24,2.58,0.06,-0.03,0.01
7:12:53 PM,-0.04,9.31,2.53,0.00,-0.01,0.01
7:12:53 PM,-0.25,9.35,2.38,-0.01,-0.03,0.01
7:12:53 PM,0.01,9.12,2.68,-0.02,-0.02,0.01
7:12:54 PM,0.03,9.20,2.79,0.01,-0.00,0.01
7:12:54 PM,0.09,9.25,2.71,0.03,0.02,0.01
7:12:54 PM,0.19,9.29,2.48,0.00,0.04,0.01
7:12:54 PM,-0.31,9.41,2.45,-0.01,-0.04,0.01
7:12:54 PM,-0.15,9.14,2.98,-0.06,-0.09,0.01
7:12:54 PM,-0.54,9.25,2.97,-0.09,-0.10,0.01
7:12:54 PM,-0.11,9.30,2.68,-0.02,0.02,0.01
7:12:54 PM,0.28,9.25,2.80,-0.00,-0.07,0.01
7:12:54 PM,0.01,9.31,2.54,0.02,0.00,0.01
7:12:54 PM,0.07,9.52,2.26,-0.01,0.01,0.01
7:12:55 PM,-0.40,9.47,2.43,0.04,0.05,0.01
7:12:55 PM,-0.05,9.31,2.55,0.02,0.06,0.01
7:12:55 PM,-0.21,9.34,2.64,0.00,0.02,0.01
7:12:55 PM,0.08,9.32,2.64,0.06,0.02,0.01
7:12:55 PM,-0.18,9.36,2.71,0.04,0.00,0.01
7:12:55 PM,-0.18,9.33,2.66,0.06,0.06,0.01
7:12:55 PM,0.01,9.16,2.85,0.04,0.01,0.01
7:12:55 PM,-0.02,9.22,2.83,0.02,-0.02,0.01
7:12:55 PM,-0.27,9.21,2.79,0.07,0.01,0.01
7:12:56 PM,-0.20,9.29,2.63,0.04,0.00,0.01
7:12:56 PM,-0.45,9.34,2.60,0.02,0.01,0.01
7:12:56 PM,-0.00,9.20,2.70,0.02,0.04,0.01
7:12:56 PM,-0.29,9.39,2.40,0.03,0.07,0.01
7:12:56 PM,-0.11,9.32,2.72,-0.04,-0.03,0.01
7:12:56 PM,0.11,9.27,2.75,-0.00,-0.01,0.01
7:12:56 PM,-0.32,9.38,2.56,-0.03,-0.01,0.01
7:12:56 PM,-0.39,9.25,2.68,-0.03,-0.00,0.01
7:12:56 PM,-0.30,9.26,2.79,0.01,0.01,0.01
7:12:57 PM,-0.29,9.31,2.83,0.03,-0.00,0.01
7:12:57 PM,-0.37,9.32,2.85,0.02,0.00,0.01
7:12:57 PM,-0.34,9.15,2.86,0.04,0.03,0.01
7:12:57 PM,0.29,9.05,3.02,0.01,-0.04,0.01
7:12:57 PM,0.29,9.06,3.06,0.07,0.01,0.01
7:12:57 PM,0.26,9.26,2.79,0.13,-0.03,0.01
7:12:58 PM,-0.01,9.20,2.53,0.06,-0.01,0.01
7:12:59 PM,-0.07,9.33,2.37,0.07,0.07,0.01
7:12:59 PM,-0.04,9.40,2.40,0.07,-0.04,0.01
7:12:59 PM,0.24,9.23,2.80,0.05,0.02,0.01
7:12:59 PM,0.19,9.27,2.86,-0.01,-0.06,0.01
7:12:59 PM,0.11,9.25,2.75,-0.00,-0.04,0.01
7:12:59 PM,-0.02,9.14,3.00,0.01,-0.02,0.01
7:12:59 PM,-0.03,9.26,2.88,0.05,0.05,0.01
7:12:59 PM,0.07,9.24,2.62,0.05,0.11,0.01
7:12:59 PM,-0.11,9.25,2.74,0.03,-0.07,0.01
7:12:59 PM,-0.07,9.16,2.91,-0.01,-0.03,0.01
7:12:59 PM,0.13,9.23,2.85,-0.02,-0.05,0.01
7:12:59 PM,0.14,9.13,3.00,0.01,-0.01,0.01
7:12:59 PM,-0.01,9.14,2.97,0.00,0.01,0.01
7:13:00 PM,0.17,9.15,3.06,0.05,-0.00,0.01
7:13:00 PM,-0.07,9.13,3.14,0.04,-0.01,0.01
7:13:00 PM,0.02,9.18,2.89,0.03,-0.02,0.01
7:13:00 PM,0.11,9.21,2.80,0.01,-0.03,0.01
7:13:00 PM,0.08,9.14,3.05,0.05,-0.02,0.01
7:13:00 PM,0.11,9.05,3.22,0.04,-0.04,0.01
7:13:00 PM,0.29,9.15,3.14,0.09,-0.01,0.01
7:13:00 PM,0.36,9.03,3.20,0.02,-0.06,0.01
7:13:00 PM,0.31,9.15,2.85,0.02,-0.04,0.01
7:13:00 PM,-0.09,9.17,3.03,0.00,-0.05,0.01
7:13:01 PM,0.08,9.11,3.13,0.05,-0.01,0.01
7:13:01 PM,0.34,9.23,2.79,0.07,0.05,0.01
7:13:01 PM,0.37,9.19,2.66,0.03,-0.01,0.01
7:13:01 PM,-0.01,9.30,2.58,-0.02,0.00,0.01
7:13:01 PM,-0.25,9.17,2.91,-0.03,0.00,0.01
7:13:01 PM,0.30,9.07,3.10,0.02,0.02,0.01
7:13:01 PM,0.02,9.12,2.94,-0.03,0.00,0.01
7:13:01 PM,0.09,9.13,3.13,0.02,-0.03,0.01
7:13:02 PM,-0.26,9.07,2.98,-0.01,-0.02,0.01
7:13:03 PM,0.14,9.00,3.28,-0.03,-0.07,0.01
7:13:03 PM,0.17,9.08,2.97,-0.03,0.01,0.01
7:13:03 PM,-0.07,9.17,2.98,-0.06,-0.06,0.01
7:13:03 PM,-0.43,9.29,2.82,-0.04,-0.05,0.01
7:13:03 PM,-0.53,9.52,2.44,-0.05,0.02,0.01
7:13:03 PM,0.09,9.20,2.98,-0.08,-0.00,0.01
7:13:03 PM,-0.27,9.02,3.35,-0.06,-0.08,0.01
7:13:03 PM,-0.05,8.91,3.71,-0.05,-0.14,0.01
7:13:03 PM,0.18,8.98,3.47,0.06,-0.06,0.01
7:13:03 PM,0.11,9.43,2.26,0.02,0.07,0.01
7:13:03 PM,0.02,9.25,2.83,-0.05,-0.04,0.01
7:13:03 PM,0.06,9.21,2.98,-0.04,-0.02,0.01
7:13:03 PM,0.20,9.18,3.07,-0.02,0.01,0.01
7:13:03 PM,0.07,9.25,2.78,-0.01,-0.03,0.01
7:13:03 PM,-0.31,9.17,2.98,-0.03,-0.02,0.01
7:13:03 PM,-0.06,9.30,2.68,0.01,0.06,0.01
7:13:04 PM,-0.08,9.38,2.54,-0.03,-0.01,0.01
7:13:04 PM,-0.13,9.41,2.41,0.06,0.08,0.01
7:13:04 PM,-0.17,9.32,2.59,0.06,0.06,0.01
7:13:04 PM,-0.10,9.34,2.29,0.04,0.07,0.01
7:13:04 PM,-0.25,9.41,2.56,-0.01,0.06,0.01
7:13:04 PM,0.08,9.25,2.81,-0.01,0.03,0.01
7:13:04 PM,-0.14,9.24,2.75,-0.05,0.05,0.01
7:13:04 PM,0.00,9.04,3.33,-0.10,-0.05,0.01
7:13:05 PM,0.09,9.04,3.36,-0.04,-0.02,0.01
7:13:05 PM,0.18,8.87,3.55,-0.04,-0.06,0.01
7:13:05 PM,0.03,9.03,3.25,-0.02,-0.02,0.01
7:13:05 PM,0.16,9.00,3.34,-0.04,-0.09,0.01
7:13:05 PM,0.12,9.08,3.32,-0.05,-0.12,0.01
7:13:05 PM,0.03,9.05,3.29,-0.08,-0.11,0.01
7:13:05 PM,0.10,8.98,3.44,0.01,-0.16,0.01
7:13:05 PM,0.31,8.98,3.32,-0.01,-0.07,0.01
7:13:05 PM,0.14,9.08,3.33,0.02,-0.12,0.01
7:13:05 PM,-0.12,9.16,2.83,0.05,-0.01,0.01
7:13:05 PM,-0.20,9.28,2.77,0.04,0.02,0.01
7:13:06 PM,0.24,9.20,2.86,0.07,0.05,0.01
7:13:06 PM,0.10,9.38,2.46,0.02,0.01,0.01
7:13:06 PM,-0.52,9.38,2.68,-0.03,0.06,0.01
7:13:06 PM,-0.09,9.10,3.20,-0.03,0.08,0.01
7:13:06 PM,0.45,9.03,3.14,0.01,-0.04,0.01
7:13:06 PM,0.11,9.05,3.17,-0.06,-0.15,0.01
7:13:06 PM,-0.17,9.21,2.73,0.03,-0.01,0.01
7:13:06 PM,0.05,9.15,2.89,-0.02,-0.12,0.01
7:13:06 PM,0.37,8.88,3.57,-0.03,-0.11,0.01
7:13:06 PM,0.27,8.94,3.29,0.03,0.04,0.01
7:13:07 PM,0.28,9.02,3.27,0.02,-0.08,0.01
7:13:07 PM,0.26,8.92,3.52,-0.00,-0.09,0.01
7:13:07 PM,0.03,8.97,3.60,0.02,-0.13,0.01
7:13:07 PM,0.21,9.07,3.34,0.07,-0.05,0.01
7:13:07 PM,0.29,9.09,3.29,0.04,-0.08,0.01
7:13:07 PM,0.56,9.02,3.06,0.06,-0.04,0.01
7:13:07 PM,-0.00,9.10,3.08,-0.02,-0.15,0.01
7:13:07 PM,0.08,9.12,3.15,0.01,-0.04,0.01
7:13:07 PM,-0.04,9.23,2.78,-0.01,0.04,0.01
7:13:08 PM,0.29,9.08,3.20,0.03,-0.04,0.01
7:13:08 PM,0.08,8.92,3.37,-0.02,-0.05,0.01
7:13:08 PM,-0.12,9.11,3.18,0.05,-0.00,0.01
7:13:08 PM,0.00,9.04,3.05,0.06,0.07,0.01
7:13:08 PM,0.47,8.98,3.11,0.05,0.02,0.01
7:13:08 PM,0.51,9.22,2.79,0.04,0.01,0.01
7:13:08 PM,0.15,9.26,2.26,0.00,-0.02,0.01
7:13:08 PM,-0.21,9.20,3.13,0.01,0.04,0.01
7:13:08 PM,0.40,8.89,3.39,-0.01,0.04,0.01
7:13:08 PM,0.65,8.91,3.39,-0.04,-0.12,0.01
7:13:09 PM,0.30,9.14,3.02,-0.01,-0.11,0.01
7:13:09 PM,0.21,9.03,3.15,0.00,-0.05,0.01
7:13:09 PM,0.30,9.05,3.13,0.03,-0.04,0.01
7:13:09 PM,0.22,9.09,2.89,0.05,0.07,0.01
7:13:09 PM,0.43,9.16,2.97,0.08,0.08,0.01
7:13:09 PM,0.73,9.11,3.12,0.04,-0.05,0.01
7:13:09 PM,0.40,9.11,2.86,0.03,-0.03,0.01
7:13:09 PM,0.13,9.11,3.10,0.01,-0.04,0.01
7:13:09 PM,0.17,9.07,3.22,0.01,-0.06,0.01
7:13:10 PM,0.58,9.05,2.96,0.08,0.04,0.01
7:13:10 PM,0.28,9.31,2.58,0.06,0.03,0.01
7:13:10 PM,0.15,9.25,2.55,-0.01,0.03,0.01
7:13:10 PM,-0.07,9.15,2.88,-0.04,-0.01,0.01
7:13:10 PM,-0.07,9.02,3.23,0.04,0.07,0.01
7:13:10 PM,-0.01,9.16,2.99,0.01,0.08,0.01
7:13:10 PM,0.10,9.13,3.09,-0.04,-0.04,0.01
7:13:10 PM,-0.02,8.98,3.42,0.04,0.02,0.01
7:13:10 PM,0.26,8.94,3.51,0.03,-0.04,0.01
7:13:10 PM,0.39,8.80,3.56,0.10,-0.02,0.01
7:13:11 PM,0.20,9.07,2.86,0.08,0.06,0.01
7:13:11 PM,0.30,9.05,2.97,0.02,-0.01,0.01
7:13:11 PM,0.19,8.90,3.29,-0.02,-0.09,0.01
7:13:11 PM,0.13,9.04,3.11,-0.02,-0.05,0.01
7:13:11 PM,-0.01,9.08,3.36,-0.09,-0.14,0.01
7:13:11 PM,0.22,8.92,3.39,-0.05,-0.07,0.01
7:13:11 PM,0.08,9.11,3.22,-0.02,-0.03,0.01
7:13:12 PM,0.16,9.09,3.19,0.02,-0.04,0.01
7:13:12 PM,0.36,9.02,3.29,0.07,-0.07,0.01
7:13:12 PM,0.10,9.08,3.11,0.05,-0.01,0.01
7:13:12 PM,0.30,9.05,2.97,0.04,-0.03,0.01
7:13:12 PM,0.44,9.05,3.10,-0.02,-0.08,0.01
7:13:12 PM,0.31,9.01,3.23,-0.01,-0.00,0.01
7:13:12 PM,0.39,8.95,3.56,-0.01,-0.12,0.01
7:13:12 PM,0.07,9.05,3.02,0.01,0.01,0.01
7:13:12 PM,-0.02,9.22,2.82,-0.01,0.03,0.01
7:13:12 PM,0.33,9.08,3.00,-0.05,-0.06,0.01
7:13:13 PM,0.15,9.09,3.23,-0.05,-0.12,0.01
7:13:13 PM,-0.05,9.02,3.17,-0.07,-0.06,0.01
7:13:13 PM,-0.16,9.12,3.12,-0.11,-0.08,0.01
7:13:13 PM,-0.38,9.17,3.15,-0.05,-0.01,0.01
7:13:13 PM,0.40,8.98,3.56,-0.02,-0.10,0.01
7:13:23 PM,0.36,8.93,3.26,0.05,0.04,0.01
7:13:23 PM,0.10,9.10,3.30,0.02,-0.06,0.01
7:13:23 PM,0.27,9.08,3.03,0.06,-0.04,0.01
7:13:23 PM,0.03,9.19,2.69,0.05,0.04,0.01
7:13:23 PM,0.13,9.23,2.71,0.01,-0.01,0.01
7:13:23 PM,-0.01,9.21,3.10,-0.03,-0.08,0.01
7:13:23 PM,-0.13,9.05,3.26,-0.07,-0.09,0.01
7:13:23 PM,-0.08,8.95,3.42,0.01,0.02,0.01
7:13:23 PM,0.47,9.18,2.88,0.03,-0.04,0.01
7:13:24 PM,0.28,9.09,3.09,-0.01,-0.09,0.01
7:13:24 PM,0.30,9.16,2.93,0.00,-0.05,0.01
7:13:24 PM,0.23,9.22,2.89,-0.04,-0.02,0.01
7:13:24 PM,0.08,9.20,3.06,-0.02,0.00,0.01
7:13:24 PM,0.10,9.05,3.18,-0.01,0.08,0.01
7:13:24 PM,0.14,9.20,2.75,-0.04,0.03,0.01
7:13:24 PM,0.01,9.05,3.11,-0.01,-0.07,0.01
7:13:24 PM,0.10,8.99,3.27,0.02,-0.03,0.01
7:13:24 PM,0.34,9.02,3.31,0.03,-0.02,0.01
7:13:24 PM,0.25,9.05,3.15,0.06,-0.02,0.01
7:13:25 PM,0.46,9.00,3.10,0.08,0.02,0.01
7:13:25 PM,0.40,9.04,2.97,0.07,-0.05,0.01
7:13:25 PM,0.19,9.19,2.89,0.05,-0.01,0.01
7:13:25 PM,0.45,9.04,3.20,0.07,-0.06,0.01
7:13:25 PM,0.21,9.16,2.73,0.03,-0.03,0.01
7:13:25 PM,-0.19,9.17,2.94,0.03,-0.01,0.01
7:13:25 PM,0.47,9.05,2.80,0.05,-0.00,0.01
7:13:25 PM,0.06,8.95,3.01,0.01,-0.03,0.01
7:13:25 PM,0.14,9.24,2.85,0.04,-0.06,0.01
7:13:26 PM,0.06,9.15,3.08,0.02,0.06,0.01
7:13:26 PM,0.52,8.97,3.47,0.04,-0.04,0.01
7:13:26 PM,0.47,9.28,2.69,0.06,0.04,0.01
7:13:26 PM,0.40,8.99,2.92,-0.01,-0.07,0.01
7:13:26 PM,0.43,9.03,2.76,0.07,0.07,0.01
7:13:26 PM,0.51,9.22,2.73,0.02,0.00,0.01
7:13:26 PM,0.57,9.30,2.63,0.07,0.10,0.01
7:13:26 PM,0.30,9.22,2.55,0.07,0.08,0.01
7:13:26 PM,0.36,9.28,2.31,0.18,0.14,0.01
7:13:26 PM,0.31,9.41,2.19,0.10,0.02,0.01
7:13:27 PM,0.17,9.43,2.06,-0.00,0.04,0.01
7:13:27 PM,0.00,9.41,2.44,-0.10,-0.01,0.01
7:13:27 PM,0.01,9.20,2.92,-0.18,-0.09,0.01
7:13:27 PM,-0.22,9.10,3.40,-0.14,-0.07,0.01
7:13:27 PM,0.18,8.99,3.45,-0.07,-0.06,0.01
7:13:27 PM,0.06,8.97,3.48,0.02,-0.08,0.01
7:13:27 PM,0.08,9.06,3.26,0.07,-0.01,0.01
7:13:27 PM,0.30,9.10,2.94,0.01,-0.01,0.01
7:13:27 PM,0.36,9.19,2.86,0.02,-0.04,0.01
7:13:28 PM,0.27,9.15,2.82,-0.02,0.05,0.01
7:13:28 PM,0.49,8.90,3.31,-0.14,-0.08,0.01
7:13:29 PM,0.47,9.03,3.20,-0.15,-0.11,0.01
7:13:30 PM,-0.23,9.11,3.19,-0.03,-0.07,0.01
7:13:35 PM,0.06,9.14,3.08,0.02,-0.02,0.01
7:13:35 PM,0.22,9.05,3.17,0.00,-0.06,0.01
7:13:42 PM,0.40,9.16,3.00,0.02,-0.05,0.01
7:13:42 PM,0.14,8.85,3.37,-0.03,-0.09,0.01
7:13:42 PM,0.45,8.75,3.76,0.00,-0.05,0.01
7:13:42 PM,0.76,8.85,3.28,0.07,-0.03,0.01
7:13:42 PM,0.25,9.05,3.04,0.10,-0.01,0.01
7:13:42 PM,-0.17,9.34,2.50,-0.07,-0.02,0.01
7:13:42 PM,-0.01,8.88,3.71,-0.10,-0.19,0.01
7:13:42 PM,0.78,9.04,3.15,0.10,-0.03,0.01
7:13:42 PM,0.68,9.09,2.70,0.16,0.10,0.01
7:13:42 PM,0.58,9.14,2.58,0.12,0.10,0.01
7:13:42 PM,0.46,9.10,2.70,0.07,0.01,0.01
7:13:42 PM,0.22,9.25,2.52,0.04,0.02,0.01
7:13:43 PM,0.06,9.27,2.81,-0.03,0.03,0.01
7:13:43 PM,0.11,9.07,3.24,-0.05,0.03,0.01
7:13:43 PM,0.57,8.93,3.39,-0.07,0.07,0.01
7:13:43 PM,0.45,8.85,3.48,-0.05,-0.03,0.01
7:13:43 PM,0.35,9.09,3.20,0.04,-0.03,0.01
7:13:43 PM,-0.04,9.11,3.01,0.04,0.02,0.01
7:13:43 PM,0.16,9.06,3.18,0.03,0.01,0.01
7:13:43 PM,0.35,8.94,3.35,0.03,0.03,0.01
7:13:44 PM,0.52,8.97,3.23,0.03,-0.01,0.01
7:13:44 PM,0.78,8.83,3.49,0.01,-0.10,0.01
7:13:44 PM,0.53,8.91,3.66,-0.02,-0.18,0.01
7:13:44 PM,0.43,8.86,3.73,0.05,-0.10,0.01
7:13:44 PM,0.50,8.95,3.33,0.08,-0.05,0.01
7:13:44 PM,0.48,8.94,3.15,0.02,-0.06,0.01
7:13:44 PM,-0.02,9.21,2.67,0.02,-0.04,0.01
7:13:44 PM,0.04,9.05,2.97,0.01,0.09,0.01
7:13:44 PM,0.23,9.13,3.00,0.01,0.01,0.01
7:13:44 PM,0.54,9.14,2.91,0.06,0.06,0.01
7:13:44 PM,0.18,9.15,2.69,0.03,0.04,0.01
7:13:45 PM,0.30,9.12,3.16,-0.03,-0.05,0.01
7:13:45 PM,0.32,8.77,3.51,0.04,-0.01,0.01
7:13:45 PM,0.43,9.16,3.12,0.08,0.03,0.01
7:13:45 PM,0.77,8.92,3.18,0.07,-0.01,0.01
7:13:45 PM,0.52,8.99,2.92,0.02,-0.04,0.01
7:13:45 PM,0.61,9.03,3.16,0.02,-0.03,0.01
7:13:45 PM,0.49,8.93,3.31,-0.02,-0.11,0.01
7:13:45 PM,0.42,8.95,3.40,0.01,-0.07,0.01
7:13:45 PM,0.13,9.03,3.33,0.04,-0.00,0.01
7:13:46 PM,0.29,8.83,3.54,-0.01,-0.08,0.01
7:13:46 PM,0.19,9.10,3.24,0.02,0.01,0.01
7:13:46 PM,0.25,9.04,3.33,0.07,0.05,0.01
7:13:46 PM,0.21,9.07,3.12,-0.04,-0.05,0.01
7:13:47 PM,0.01,9.19,2.92,-0.01,-0.05,0.01
7:13:48 PM,-0.17,9.12,3.20,0.01,-0.01,0.01
7:13:48 PM,0.19,9.05,3.25,-0.01,-0.05,0.01
7:13:48 PM,0.15,9.00,3.35,0.03,-0.02,0.01
7:13:48 PM,0.23,9.02,3.18,0.02,-0.01,0.01
7:13:48 PM,0.10,9.08,2.89,0.06,0.08,0.01
7:13:48 PM,0.28,9.09,3.09,0.02,0.08,0.01
7:13:48 PM,0.57,9.00,3.18,0.06,0.03,0.01
7:13:48 PM,0.33,9.22,2.81,0.06,-0.01,0.01
7:13:48 PM,-0.17,9.22,2.50,0.03,0.14,0.01
7:13:48 PM,-0.16,9.25,2.59,0.00,-0.07,0.01
7:13:48 PM,0.00,9.38,2.65,0.01,0.02,0.01
7:13:48 PM,0.19,8.96,3.20,-0.00,-0.01,0.01
7:13:50 PM,0.02,9.13,2.91,-0.02,0.06,0.01
7:13:50 PM,-0.05,9.15,3.16,-0.03,-0.01,0.01
7:13:50 PM,0.26,8.80,3.68,-0.01,-0.07,0.01
7:13:50 PM,0.36,8.92,3.36,0.01,-0.04,0.01
7:13:51 PM,0.08,8.85,3.46,0.02,-0.12,0.01
7:13:51 PM,0.21,9.14,2.81,0.07,-0.01,0.01
7:13:52 PM,0.11,9.16,2.72,0.07,0.12,0.01
7:13:52 PM,0.32,9.27,2.93,0.04,-0.00,0.01
7:13:52 PM,-0.03,8.93,3.34,-0.09,-0.05,0.01
7:13:52 PM,0.24,9.14,2.76,0.05,0.07,0.01
7:13:52 PM,0.27,9.16,2.71,0.02,0.06,0.01
7:13:52 PM,0.25,9.23,2.87,-0.04,-0.02,0.01
7:13:52 PM,0.22,9.05,2.98,0.02,0.03,0.01
7:13:52 PM,-0.03,9.10,3.15,0.02,0.08,0.01
7:13:52 PM,0.22,8.95,3.32,0.08,0.05,0.01
7:13:52 PM,0.28,9.01,3.27,0.02,0.02,0.01
7:13:52 PM,0.24,8.90,3.42,-0.05,-0.05,0.01
7:13:52 PM,0.37,8.99,3.29,-0.04,-0.10,0.01
7:13:52 PM,-0.01,9.05,3.15,-0.01,-0.05,0.01
7:13:52 PM,0.10,9.10,3.05,-0.02,0.03,0.01
7:13:52 PM,0.11,9.16,2.97,-0.06,-0.04,0.01
7:13:52 PM,-0.01,8.98,3.34,-0.00,0.01,0.01
7:13:52 PM,0.28,9.06,3.17,0.01,0.00,0.01
7:13:53 PM,0.17,9.16,2.89,0.04,0.02,0.01
7:13:53 PM,0.12,9.16,2.96,-0.01,-0.03,0.01
7:13:53 PM,0.07,9.15,2.99,0.03,-0.00,0.01
7:13:53 PM,0.06,9.09,2.99,0.01,0.01,0.01
7:13:53 PM,0.19,9.20,3.02,0.07,0.05,0.01
7:13:53 PM,0.33,8.95,3.17,0.08,0.01,0.01
7:13:53 PM,0.14,9.09,2.95,0.07,0.04,0.01
7:13:53 PM,0.37,9.05,3.23,0.04,-0.03,0.01
7:13:54 PM,0.35,9.04,3.20,0.01,-0.10,0.01
7:13:54 PM,0.02,8.96,3.44,0.01,-0.08,0.01
7:13:54 PM,0.04,8.96,3.31,0.04,0.04,0.01
7:13:54 PM,0.34,8.93,3.50,0.07,0.03,0.01
7:13:54 PM,0.34,8.97,3.49,0.06,-0.05,0.01
7:13:54 PM,0.21,8.97,3.26,0.05,-0.05,0.01
7:13:54 PM,0.41,8.93,3.23,0.08,0.02,0.01
7:13:54 PM,0.20,9.11,2.98,0.02,0.05,0.01
7:13:54 PM,0.14,9.07,3.18,-0.02,0.03,0.01
7:13:54 PM,0.11,8.99,3.43,-0.02,-0.02,0.01
7:13:57 PM,0.02,9.07,3.10,-0.02,-0.04,0.01
7:13:57 PM,0.07,9.00,3.15,-0.02,-0.01,0.01
7:13:57 PM,0.34,8.99,3.34,-0.07,-0.12,0.01
7:13:57 PM,0.23,9.00,3.19,0.01,-0.04,0.01
7:13:57 PM,-0.13,9.17,2.99,-0.03,-0.05,0.01
7:13:57 PM,-0.32,9.12,3.07,0.01,0.02,0.01
7:13:57 PM,0.17,9.00,3.31,-0.01,0.02,0.01
7:13:57 PM,0.10,9.05,3.30,0.01,-0.04,0.01
7:13:57 PM,0.07,8.97,3.50,0.00,-0.07,0.01
7:13:58 PM,0.26,9.09,3.21,0.02,-0.13,0.01
7:13:58 PM,0.10,9.24,2.90,0.03,-0.04,0.01
7:13:58 PM,0.12,9.20,2.77,0.01,-0.00,0.01
7:13:58 PM,0.17,9.31,2.57,-0.04,-0.01,0.01
7:13:58 PM,-0.19,9.20,2.78,-0.00,0.03,0.01
7:13:58 PM,-0.23,9.19,2.94,-0.03,0.03,0.01
7:13:58 PM,0.04,8.94,3.48,-0.06,-0.04,0.01
7:13:58 PM,0.05,8.85,3.58,0.02,0.01,0.01
7:13:58 PM,0.27,9.10,3.14,0.08,0.05,0.01
7:13:58 PM,-0.12,9.17,2.93,0.02,-0.03,0.01
7:13:59 PM,0.37,9.21,2.70,0.06,0.05,0.01
7:13:59 PM,0.22,9.04,2.99,0.05,0.03,0.01
7:13:59 PM,0.10,9.17,2.86,-0.04,0.05,0.01
7:13:59 PM,-0.08,9.17,2.96,-0.04,0.01,0.01
7:13:59 PM,-0.15,8.98,3.42,-0.07,-0.04,0.01
7:13:59 PM,0.06,8.77,3.84,-0.02,-0.04,0.01
7:13:59 PM,0.09,9.00,3.41,0.04,0.02,0.01
7:13:59 PM,0.21,9.01,3.20,0.02,-0.05,0.01
7:13:59 PM,0.33,9.17,2.98,0.07,0.04,0.01
7:14:00 PM,0.21,9.13,2.93,0.05,-0.01,0.01
7:14:00 PM,0.48,9.10,3.11,0.09,0.01,0.01
7:14:00 PM,0.45,9.05,3.06,0.04,0.00,0.01
7:14:00 PM,0.16,9.05,3.00,0.01,-0.00,0.01
7:14:00 PM,0.19,9.04,3.16,0.02,0.00,0.01
7:14:00 PM,0.49,9.21,2.80,0.05,0.01,0.01
7:14:00 PM,-0.07,9.14,2.91,-0.01,-0.03,0.01
7:14:00 PM,0.21,9.16,3.09,-0.01,-0.03,0.01
7:14:00 PM,0.14,9.11,2.89,0.04,0.08,0.01
7:14:00 PM,0.28,9.13,3.00,0.05,0.04,0.01
7:14:01 PM,0.20,9.17,2.88,0.03,0.00,0.01
7:14:01 PM,0.06,9.11,3.10,-0.00,-0.00,0.01
7:14:01 PM,-0.10,9.16,3.01,0.02,0.02,0.01
7:14:01 PM,0.47,8.96,3.20,0.02,-0.01,0.01
7:14:01 PM,0.18,8.99,3.20,0.03,-0.02,0.01
7:14:01 PM,0.07,8.95,3.36,-0.01,-0.01,0.01
7:14:01 PM,0.02,9.00,3.29,-0.01,0.00,0.01
7:14:01 PM,0.02,8.96,3.38,0.06,0.02,0.01
7:14:02 PM,0.35,8.99,3.22,0.09,0.04,0.01
7:14:02 PM,0.36,9.06,3.05,0.03,-0.02,0.01
7:14:02 PM,-0.07,9.21,2.78,-0.01,-0.01,0.01
7:14:02 PM,0.07,9.11,3.10,0.00,0.01,0.01
7:14:02 PM,0.22,9.08,3.13,0.06,0.07,0.01
7:14:02 PM,0.41,9.09,2.93,0.03,0.07,0.01
7:14:02 PM,0.34,9.04,3.05,-0.02,-0.05,0.01
7:14:02 PM,-0.18,9.18,2.87,-0.01,0.01,0.01
7:14:02 PM,-0.21,9.17,3.08,-0.05,0.04,0.01
7:14:02 PM,0.35,9.17,3.17,0.05,0.09,0.01
7:14:03 PM,0.38,9.02,3.16,0.04,-0.03,0.01
7:14:03 PM,0.22,9.18,3.10,0.01,-0.03,0.01
7:14:03 PM,0.59,9.11,3.06,0.02,-0.06,0.01
7:14:03 PM,0.24,9.16,2.83,-0.02,-0.01,0.01
7:14:03 PM,-0.06,9.27,2.88,-0.04,-0.03,0.01
7:14:04 PM,0.02,9.22,3.06,-0.01,0.06,0.01
7:14:05 PM,0.14,9.10,3.21,0.01,0.07,0.01
7:14:05 PM,0.36,9.14,3.03,0.00,0.01,0.01
7:14:05 PM,0.50,9.13,2.93,-0.02,-0.05,0.01
7:14:05 PM,0.14,9.07,3.23,-0.02,-0.09,0.01
7:14:05 PM,-0.01,9.03,3.16,0.02,0.01,0.01
7:14:05 PM,0.12,8.97,3.28,0.01,0.01,0.01
7:14:05 PM,0.23,9.01,3.17,0.05,0.02,0.01
7:14:05 PM,0.36,9.07,3.19,0.07,0.03,0.01
7:14:05 PM,0.24,9.15,2.89,0.04,0.00,0.01
7:14:05 PM,0.26,8.86,3.65,-0.01,-0.01,0.01
7:14:05 PM,0.21,8.99,3.47,0.01,-0.07,0.01
7:14:06 PM,0.11,8.94,3.54,0.07,0.02,0.01
7:14:06 PM,0.37,8.92,3.26,0.08,-0.04,0.01
7:14:06 PM,0.51,8.90,3.28,0.06,0.03,0.01
7:14:06 PM,0.57,8.86,3.36,0.05,0.08,0.01
7:14:06 PM,0.67,8.89,3.18,0.02,0.02,0.01
7:14:06 PM,0.50,9.10,2.94,0.04,0.02,0.01
7:14:06 PM,0.17,9.09,3.02,0.03,0.04,0.01
7:14:06 PM,0.26,9.01,3.44,-0.01,0.01,0.01
7:14:06 PM,0.53,9.05,3.28,0.01,-0.01,0.01
7:14:06 PM,0.26,8.94,3.36,0.03,0.01,0.01
7:14:07 PM,0.11,9.06,3.22,0.04,0.02,0.01
7:14:07 PM,-0.03,9.17,3.09,0.02,0.02,0.01
7:14:07 PM,0.10,8.95,3.47,0.06,0.00,0.01
7:14:07 PM,0.53,8.81,3.68,0.02,-0.06,0.01
7:14:07 PM,0.34,9.01,3.50,0.04,-0.06,0.01
7:14:07 PM,0.18,9.03,3.40,0.08,-0.09,0.01
7:14:07 PM,0.30,8.81,3.54,0.01,-0.02,0.01
7:14:07 PM,0.59,9.02,3.21,0.05,0.04,0.01
7:14:07 PM,0.46,9.00,3.21,0.03,-0.09,0.01
7:14:08 PM,0.08,9.13,2.90,0.04,-0.05,0.01
7:14:08 PM,0.21,9.11,3.10,0.02,-0.04,0.01
7:14:08 PM,0.62,9.03,3.42,0.02,-0.05,0.01
7:14:08 PM,0.43,8.85,3.43,-0.01,-0.06,0.01
7:14:08 PM,0.15,8.98,3.28,-0.00,-0.02,0.01
7:14:08 PM,-0.14,9.07,3.32,-0.06,-0.04,0.01
7:14:08 PM,-0.09,8.98,3.30,-0.07,-0.01,0.01
7:14:08 PM,-0.03,9.03,3.30,-0.07,-0.03,0.01
7:14:08 PM,-0.13,9.04,3.29,-0.06,-0.04,0.01
7:14:08 PM,-0.17,8.96,3.37,-0.05,0.01,0.01
7:14:09 PM,0.05,8.95,3.38,0.03,0.01,0.01
7:14:09 PM,0.33,9.00,3.37,0.03,-0.03,0.01
7:14:09 PM,0.34,8.95,3.34,0.05,-0.01,0.01
7:14:09 PM,0.35,8.91,3.35,0.10,0.06,0.01
7:14:09 PM,0.57,9.03,2.89,0.12,0.12,0.01
7:14:09 PM,0.66,8.99,2.90,0.06,0.05,0.01
7:14:09 PM,0.48,8.99,3.04,0.02,0.00,0.01
7:14:10 PM,0.18,8.99,3.15,-0.05,-0.05,0.01
7:14:10 PM,0.34,8.90,3.30,-0.01,0.02,0.01
7:14:10 PM,0.19,9.05,3.13,0.04,0.03,0.01
7:14:10 PM,0.34,9.01,3.12,0.05,0.04,0.01
7:14:10 PM,0.17,9.00,3.44,-0.00,-0.04,0.01
7:14:10 PM,0.02,8.85,3.67,-0.02,-0.01,0.01
7:14:10 PM,0.03,8.82,3.68,-0.01,0.02,0.01
7:14:10 PM,0.07,8.88,3.55,-0.02,-0.04,0.01
7:14:10 PM,0.08,8.93,3.41,0.03,0.00,0.01
7:14:10 PM,0.08,9.09,3.12,0.11,0.09,0.01
7:14:10 PM,0.21,9.06,2.93,0.06,0.01,0.01
7:14:11 PM,0.37,8.89,3.18,0.05,0.03,0.01
7:14:11 PM,0.61,8.94,3.12,0.06,-0.00,0.01
7:14:11 PM,0.23,8.91,3.27,0.02,-0.07,0.01
7:14:11 PM,0.34,8.98,3.28,0.09,0.04,0.01
7:14:11 PM,0.20,9.08,3.05,0.03,-0.01,0.01
7:14:11 PM,0.43,8.85,3.49,0.06,0.02,0.01
7:14:11 PM,0.43,8.94,3.41,0.04,0.04,0.01
7:14:11 PM,0.86,8.93,3.36,0.01,-0.13,0.01
7:14:11 PM,0.45,9.05,3.15,0.02,-0.14,0.01
7:14:11 PM,-0.14,9.10,2.96,0.02,-0.05,0.01
7:14:12 PM,-0.24,8.92,3.36,0.02,0.02,0.01
7:14:12 PM,0.34,8.97,3.35,0.06,0.02,0.01
7:14:12 PM,0.37,9.01,3.26,0.04,-0.05,0.01
7:14:12 PM,0.54,8.91,3.32,0.05,-0.04,0.01
7:14:12 PM,0.43,9.00,3.14,0.03,-0.06,0.01
7:14:12 PM,0.09,9.19,2.94,0.08,0.06,0.01
7:14:12 PM,0.46,9.01,2.98,0.02,0.07,0.01
7:14:12 PM,0.40,9.02,3.13,0.01,0.04,0.01
7:14:12 PM,0.38,9.06,3.09,0.07,0.01,0.01
7:14:13 PM,0.10,9.06,3.23,0.01,-0.00,0.01
7:14:13 PM,0.21,8.90,3.46,-0.01,-0.05,0.01
7:14:13 PM,0.35,8.94,3.45,0.02,-0.02,0.01
7:14:13 PM,0.17,8.93,3.47,0.03,-0.08,0.01
7:14:13 PM,0.15,8.96,3.21,0.00,-0.01,0.01
7:14:13 PM,0.29,9.00,3.23,-0.04,-0.05,0.01
7:14:13 PM,0.12,9.00,3.40,0.01,-0.07,0.01
7:14:13 PM,0.33,8.89,3.49,0.03,-0.04,0.01
7:14:13 PM,0.36,8.88,3.42,0.01,-0.06,0.01
7:14:13 PM,0.24,8.94,3.46,0.07,-0.05,0.01
7:14:14 PM,0.22,8.94,3.31,0.03,0.06,0.01
7:14:14 PM,0.31,9.00,3.05,-0.05,-0.03,0.01
7:14:14 PM,0.04,9.14,3.21,-0.04,-0.04,0.01
7:14:14 PM,-0.08,9.09,3.24,-0.01,0.03,0.01
7:14:14 PM,0.19,9.03,3.33,0.02,0.03,0.01
7:14:14 PM,0.25,9.06,3.17,0.04,0.09,0.01
7:14:14 PM,0.49,9.08,2.94,0.04,-0.05,0.01
7:14:14 PM,0.13,9.11,3.08,0.02,-0.03,0.01
7:14:14 PM,0.18,9.08,3.01,0.05,0.02,0.01
7:14:15 PM,0.20,9.15,2.95,-0.01,0.01,0.01
7:14:15 PM,0.11,9.06,3.20,-0.06,-0.12,0.01
7:14:15 PM,0.06,9.06,3.20,-0.02,0.00,0.01
7:14:15 PM,0.28,8.99,3.29,0.03,-0.03,0.01
7:14:15 PM,0.00,9.04,3.39,0.03,-0.01,0.01
7:14:15 PM,0.06,9.21,2.94,0.07,-0.00,0.01
7:14:15 PM,-0.26,9.29,2.49,-0.02,0.02,0.01
7:14:15 PM,-0.04,9.29,2.78,0.02,0.01,0.01
7:14:15 PM,0.19,9.33,2.74,0.02,0.06,0.01
7:14:15 PM,0.09,9.05,3.12,-0.01,-0.03,0.01
7:14:16 PM,0.29,9.04,3.24,0.04,-0.01,0.01
7:14:16 PM,0.18,9.11,3.09,0.06,0.00,0.01
7:14:16 PM,0.38,9.04,3.13,0.06,-0.00,0.01
7:14:16 PM,0.44,8.97,3.13,0.02,-0.04,0.01
7:14:16 PM,0.47,9.03,3.21,0.11,0.01,0.01
7:14:16 PM,0.59,9.05,3.09,0.06,0.00,0.01
7:14:16 PM,0.24,9.21,2.93,0.05,-0.00,0.01
7:14:16 PM,0.34,9.16,2.87,0.09,0.02,0.01
7:14:16 PM,0.34,9.35,2.26,0.15,0.02,0.01
7:14:17 PM,0.11,9.20,2.53,0.02,0.07,0.01
7:14:17 PM,0.28,9.05,3.14,-0.04,-0.04,0.01
7:14:17 PM,0.26,9.27,3.10,0.01,-0.01,0.01
7:14:17 PM,0.13,9.08,2.94,0.00,-0.00,0.01
7:14:17 PM,0.38,9.08,2.90,0.00,-0.02,0.01
7:14:17 PM,0.31,9.15,2.87,-0.02,0.03,0.01
7:14:17 PM,0.44,9.21,2.84,-0.00,-0.01,0.01
7:14:17 PM,0.35,9.23,2.66,-0.01,0.04,0.01
7:14:17 PM,0.21,9.11,3.00,-0.06,-0.04,0.01
7:14:17 PM,0.03,9.07,3.17,-0.06,-0.05,0.01
7:14:18 PM,-0.24,9.08,3.38,-0.07,-0.01,0.01
7:14:18 PM,0.09,9.18,3.14,0.02,0.02,0.01
7:14:18 PM,0.06,9.16,3.14,0.02,-0.02,0.01
7:14:18 PM,0.14,8.93,3.28,0.01,-0.05,0.01
7:14:18 PM,0.19,9.02,3.20,0.01,0.02,0.01
7:14:18 PM,0.07,9.23,2.89,0.03,-0.02,0.01
7:14:18 PM,-0.02,9.08,3.07,0.02,-0.01,0.01
7:14:18 PM,0.12,9.08,3.08,0.03,0.07,0.01
7:14:18 PM,0.20,9.04,3.03,-0.03,-0.00,0.01
7:14:19 PM,0.04,9.26,2.81,-0.11,-0.04,0.01
7:14:19 PM,0.01,9.16,3.08,-0.07,-0.03,0.01
7:14:19 PM,-0.22,9.12,3.14,-0.04,0.00,0.01
7:14:19 PM,-0.02,8.99,3.45,-0.01,0.01,0.01
7:14:19 PM,0.14,9.02,3.22,0.04,0.03,0.01
7:14:19 PM,0.03,9.00,3.28,-0.01,-0.04,0.01
7:14:19 PM,0.33,8.99,3.33,-0.05,-0.03,0.01
7:14:19 PM,0.20,9.04,3.16,-0.02,-0.02,0.01
7:14:19 PM,0.06,8.93,3.27,-0.02,-0.06,0.01
7:14:20 PM,-0.04,8.94,3.39,-0.02,-0.03,0.01
7:14:20 PM,0.21,9.03,3.29,-0.03,0.01,0.01
7:14:20 PM,0.33,9.02,3.31,-0.05,-0.01,0.01
7:14:20 PM,0.53,8.88,3.45,-0.04,-0.05,0.01
7:14:20 PM,0.18,9.01,3.34,-0.04,-0.10,0.01
7:14:20 PM,-0.16,8.99,3.35,-0.02,-0.05,0.01
7:14:20 PM,-0.00,9.11,3.15,0.02,0.02,0.01
7:14:20 PM,0.37,9.06,3.11,-0.03,0.02,0.01
7:14:20 PM,0.58,8.98,3.22,-0.05,-0.10,0.01
7:14:20 PM,0.13,9.16,3.30,-0.01,0.14,0.01
7:14:21 PM,0.61,8.79,3.47,-0.09,-0.18,0.01
7:14:21 PM,0.25,9.10,3.21,-0.03,-0.12,0.01
7:14:21 PM,-0.17,9.06,3.30,0.01,-0.05,0.01
7:14:21 PM,-0.23,9.05,3.06,0.02,0.09,0.01
7:14:21 PM,0.31,9.05,3.07,0.02,0.10,0.01
7:14:21 PM,0.48,9.03,3.24,-0.04,-0.05,0.01
7:14:21 PM,0.19,9.03,3.28,0.04,0.01,0.01
7:14:21 PM,0.24,9.11,3.08,0.03,0.05,0.01
7:14:21 PM,0.53,8.87,3.21,0.08,0.00,0.01
7:14:21 PM,0.53,8.89,3.41,0.04,-0.00,0.01
7:14:22 PM,0.41,9.00,3.36,0.08,0.04,0.01
7:14:22 PM,0.39,9.12,3.13,0.03,0.02,0.01
7:14:22 PM,0.64,8.90,3.31,0.02,-0.04,0.01
7:14:22 PM,0.51,9.06,2.81,-0.03,-0.01,0.01
7:14:22 PM,0.19,8.98,3.23,-0.06,-0.02,0.01
7:14:22 PM,0.32,9.05,3.24,0.03,0.06,0.01
7:14:22 PM,0.54,9.03,3.13,0.00,0.00,0.01
7:14:22 PM,0.39,9.08,3.08,0.02,0.02,0.01
7:14:23 PM,0.30,9.20,2.76,0.08,0.05,0.01
7:14:23 PM,0.17,9.10,3.03,-0.02,0.04,0.01
7:14:23 PM,0.45,8.98,3.23,-0.02,0.01,0.01
7:14:23 PM,0.42,9.11,3.03,-0.07,-0.01,0.01
7:14:23 PM,0.09,9.15,3.03,-0.04,-0.01,0.01
7:14:23 PM,-0.11,9.18,2.86,-0.01,0.02,0.01
7:14:23 PM,-0.15,9.26,2.85,-0.00,0.07,0.01
7:14:23 PM,0.44,9.05,3.20,0.07,0.07,0.01
7:14:23 PM,0.40,9.20,2.92,0.02,-0.02,0.01
7:14:23 PM,0.21,9.18,2.85,0.02,0.03,0.01
7:14:23 PM,0.30,9.07,3.14,0.06,-0.01,0.01
7:14:24 PM,0.38,9.08,2.98,0.07,-0.01,0.01
7:14:24 PM,0.25,8.99,3.21,0.02,-0.03,0.01
7:14:24 PM,0.52,9.07,3.01,0.05,-0.05,0.01
7:14:24 PM,0.47,9.08,3.04,0.01,-0.04,0.01
7:14:24 PM,0.32,8.99,3.30,-0.03,-0.10,0.01
7:14:24 PM,0.06,8.92,3.50,-0.03,-0.02,0.01
7:14:24 PM,-0.09,8.95,3.49,0.00,0.01,0.01
7:14:24 PM,0.23,9.06,3.37,0.05,0.01,0.01
7:14:24 PM,0.17,9.00,3.40,0.04,-0.01,0.01
7:14:25 PM,0.45,8.85,3.47,0.05,0.03,0.01
7:14:25 PM,0.56,8.97,3.35,0.00,-0.03,0.01
7:14:25 PM,0.63,8.90,3.34,0.00,-0.04,0.01
7:14:25 PM,0.69,8.86,3.35,0.03,-0.02,0.01
7:14:25 PM,0.81,8.87,3.39,0.01,-0.01,0.01
7:14:25 PM,0.96,8.84,3.59,-0.01,-0.10,0.01
7:14:25 PM,0.42,8.98,3.28,-0.08,-0.15,0.01
7:14:25 PM,0.20,8.85,3.64,-0.08,-0.21,0.01
7:14:25 PM,-0.08,8.98,3.46,-0.05,-0.11,0.01
7:14:26 PM,0.01,8.83,3.78,-0.02,-0.10,0.01
7:14:26 PM,0.04,8.99,3.27,0.03,0.02,0.01
7:14:26 PM,0.03,8.98,3.37,-0.01,-0.05,0.01
7:14:26 PM,-0.05,9.05,3.14,0.04,0.04,0.01
7:14:26 PM,0.04,9.00,3.18,0.15,0.11,0.01
7:14:26 PM,0.67,9.11,2.72,0.09,0.10,0.01
7:14:26 PM,0.31,9.04,2.91,0.01,0.06,0.01
7:14:26 PM,-0.09,9.24,2.86,0.03,0.09,0.01
7:14:26 PM,0.30,9.16,3.31,0.05,0.05,0.01
7:14:26 PM,0.49,9.03,3.13,0.06,0.08,0.01
7:14:27 PM,0.36,9.00,3.22,0.02,0.06,0.01
7:14:27 PM,0.52,9.05,3.05,0.05,0.11,0.01
7:14:27 PM,0.82,9.00,3.26,0.00,-0.05,0.01
7:14:27 PM,0.45,9.01,3.22,0.01,0.02,0.01
7:14:27 PM,0.51,9.05,3.08,0.03,0.03,0.01
7:14:27 PM,0.34,9.04,3.23,0.01,-0.04,0.01
7:14:27 PM,0.21,9.03,3.07,-0.02,0.01,0.01
7:14:27 PM,0.36,8.77,3.50,0.06,0.04,0.01
7:14:27 PM,0.61,8.93,3.20,0.09,0.09,0.01
7:14:28 PM,0.77,8.98,3.18,0.06,0.01,0.01
7:14:28 PM,0.80,8.84,3.44,0.05,-0.04,0.01
7:14:28 PM,0.93,8.83,3.23,0.02,-0.06,0.01
7:14:28 PM,0.46,8.93,3.16,-0.02,-0.11,0.01
7:14:28 PM,0.26,9.04,3.09,0.07,0.10,0.01
7:14:28 PM,1.00,8.97,3.21,0.02,0.01,0.01
7:14:28 PM,0.85,9.03,3.18,0.00,-0.07,0.01
7:14:28 PM,0.51,9.08,3.11,-0.03,-0.19,0.01
7:14:28 PM,0.05,9.14,2.94,0.01,-0.07,0.01
7:14:28 PM,-0.02,9.18,2.87,0.02,-0.01,0.01
7:14:29 PM,0.25,9.26,2.94,0.01,0.03,0.01
7:14:29 PM,0.45,8.99,3.38,-0.04,-0.14,0.01
7:14:29 PM,0.08,8.89,3.39,0.00,-0.08,0.01
7:14:29 PM,0.02,9.12,3.14,0.03,0.04,0.01
7:14:30 PM,-0.22,9.21,2.90,0.08,0.10,0.01
7:14:30 PM,0.26,9.12,3.07,0.14,0.11,0.01
7:14:48 PM,0.70,9.02,3.18,0.12,0.03,0.01
7:14:48 PM,0.07,9.05,3.09,0.13,-0.01,0.01
7:14:48 PM,0.30,9.11,2.94,0.14,0.04,0.01
7:14:48 PM,0.80,9.03,2.94,0.13,0.03,0.01
7:14:48 PM,0.79,9.05,2.77,0.08,0.04,0.01
7:14:48 PM,0.72,9.11,2.90,0.02,-0.07,0.01
7:14:48 PM,0.28,9.23,2.74,0.03,-0.04,0.01
7:14:48 PM,0.40,9.11,2.85,0.08,0.02,0.01
7:14:48 PM,0.32,8.89,3.39,-0.06,-0.05,0.01
7:14:48 PM,0.19,9.21,2.94,0.02,0.00,0.01
7:14:48 PM,0.02,9.23,2.92,0.00,0.05,0.01
7:14:48 PM,0.08,9.00,3.18,0.00,0.05,0.01
7:14:48 PM,0.22,9.05,3.19,0.01,0.04,0.01
7:14:48 PM,0.40,8.94,3.35,-0.02,-0.02,0.01
7:14:48 PM,0.28,9.07,3.06,0.01,0.02,0.01
7:14:48 PM,-0.07,9.15,2.95,0.01,-0.02,0.01
7:14:49 PM,-0.41,9.20,2.93,0.00,0.02,0.01
7:14:49 PM,0.20,9.14,3.08,0.04,0.02,0.01
7:14:49 PM,-0.16,9.00,3.14,0.03,0.02,0.01
7:14:49 PM,0.21,9.11,3.01,0.07,0.07,0.01
7:14:49 PM,0.50,9.00,3.07,0.01,-0.00,0.01
7:14:49 PM,0.45,9.05,3.23,0.04,0.01,0.01
7:14:49 PM,0.27,9.03,3.18,0.09,0.00,0.01
7:14:49 PM,0.50,9.02,3.17,0.07,0.05,0.01
7:14:50 PM,0.65,8.88,3.27,0.02,-0.03,0.01
7:14:50 PM,0.29,9.13,3.30,0.07,-0.15,0.01
7:14:50 PM,-0.44,8.94,3.24,0.03,0.08,0.01
7:14:50 PM,0.43,8.94,3.22,0.06,0.14,0.01
7:14:50 PM,1.02,8.94,3.23,0.00,-0.09,0.01
7:14:50 PM,0.46,9.11,3.11,-0.00,-0.11,0.01
7:14:50 PM,-0.23,9.16,2.93,0.04,0.04,0.01
7:14:50 PM,0.09,9.03,3.20,0.06,0.08,0.01
7:14:50 PM,0.55,8.97,3.21,-0.02,-0.05,0.01
7:14:50 PM,0.13,9.17,2.92,-0.06,0.02,0.01
7:14:50 PM,0.27,8.94,3.33,-0.07,-0.08,0.01
7:14:51 PM,0.11,8.93,3.57,-0.00,-0.01,0.01
7:14:51 PM,0.02,9.02,3.46,0.03,0.04,0.01
7:14:51 PM,0.09,8.83,3.62,-0.03,-0.06,0.01
7:14:51 PM,0.09,8.92,3.68,0.04,-0.07,0.01
7:14:51 PM,-0.03,8.94,3.51,0.04,-0.04,0.01
7:14:51 PM,0.38,8.89,3.57,0.06,-0.01,0.01
7:14:51 PM,0.73,9.08,3.17,0.09,-0.02,0.01
7:14:51 PM,0.33,9.11,3.05,0.05,-0.07,0.01
7:14:52 PM,0.08,9.05,3.19,0.01,0.00,0.01
7:14:52 PM,0.25,8.95,3.31,0.00,-0.03,0.01
7:14:52 PM,0.17,8.85,3.27,-0.04,-0.06,0.01
7:14:52 PM,0.36,8.84,3.48,0.04,-0.06,0.01
7:14:52 PM,0.52,9.02,3.27,0.08,-0.04,0.01
7:14:52 PM,0.38,9.09,2.97,0.04,-0.00,0.01
7:14:52 PM,0.24,8.93,3.26,0.04,-0.05,0.01
7:14:52 PM,0.06,9.00,3.12,-0.03,0.01,0.01
7:14:52 PM,0.16,9.09,3.19,-0.02,0.11,0.01
7:14:52 PM,0.51,9.02,3.31,-0.04,-0.04,0.01
7:14:52 PM,0.19,8.94,3.42,-0.00,-0.04,0.01
7:14:53 PM,-0.02,9.08,3.10,0.03,0.02,0.01
7:14:53 PM,0.41,8.95,3.21,0.03,0.05,0.01
7:14:53 PM,0.13,9.12,2.99,0.01,0.01,0.01
7:14:53 PM,0.19,9.06,3.12,-0.03,-0.04,0.01
7:14:53 PM,-0.05,9.00,3.35,-0.03,-0.01,0.01
7:14:53 PM,0.07,8.89,3.56,-0.08,-0.01,0.01
7:14:53 PM,0.19,8.82,3.66,-0.00,-0.03,0.01
7:14:54 PM,0.32,8.95,3.53,0.01,-0.09,0.01
7:14:54 PM,-0.03,9.03,3.29,0.02,-0.07,0.01
7:14:54 PM,-0.02,8.92,3.67,0.00,-0.10,0.01
7:14:54 PM,-0.00,8.88,3.68,0.06,0.00,0.01
7:14:54 PM,0.26,8.87,3.38,0.05,-0.02,0.01
7:14:54 PM,0.22,8.75,3.59,-0.02,-0.11,0.01
7:14:54 PM,0.34,8.80,3.53,0.01,-0.04,0.01
7:14:54 PM,0.14,8.90,3.42,0.00,-0.02,0.01
7:14:54 PM,0.09,9.03,3.37,0.05,0.03,0.01
7:14:54 PM,0.21,8.86,3.95,0.07,-0.02,0.01
7:14:54 PM,-0.06,9.28,2.85,0.06,0.05,0.01
7:14:54 PM,-0.05,9.09,2.76,0.06,0.00,0.01
7:14:55 PM,0.08,9.17,3.14,0.01,-0.03,0.01
7:14:55 PM,0.20,9.00,3.08,0.01,0.05,0.01
7:14:55 PM,0.44,9.14,2.98,0.04,0.06,0.01
7:14:55 PM,0.47,9.17,4.41,-0.06,0.01,0.01
7:14:55 PM,0.55,8.98,3.39,0.11,0.14,0.01
7:14:55 PM,0.52,9.17,2.98,0.13,0.15,0.01
7:14:55 PM,0.40,9.00,3.05,0.11,0.04,0.01
7:14:55 PM,0.31,9.00,3.10,0.07,0.05,0.01
7:14:55 PM,0.49,9.09,2.86,0.02,0.07,0.01
7:14:56 PM,0.57,9.33,2.99,-0.01,0.04,0.01
7:14:56 PM,0.49,9.11,3.14,-0.03,0.01,0.01
7:14:56 PM,0.21,9.11,3.12,0.01,-0.04,0.01
7:14:56 PM,-0.02,8.92,3.28,0.06,-0.06,0.01
7:14:56 PM,-0.09,9.19,3.01,0.07,0.05,0.01
7:14:56 PM,-0.11,9.21,3.03,-0.02,0.03,0.01
7:14:56 PM,0.16,8.75,3.18,-0.07,0.06,0.01
7:14:56 PM,0.26,8.99,3.23,-0.02,0.01,0.01
7:14:56 PM,0.49,9.24,2.93,0.01,-0.02,0.01
7:14:57 PM,-0.00,9.18,2.72,-0.01,-0.00,0.01
7:14:57 PM,-0.07,9.13,2.87,-0.04,0.01,0.01
7:14:57 PM,0.17,9.12,3.12,-0.04,0.01,0.01
7:14:57 PM,0.28,8.79,3.47,-0.02,-0.05,0.01
7:14:57 PM,0.52,8.74,3.74,0.03,-0.03,0.01
7:14:57 PM,0.43,8.99,3.45,0.03,-0.07,0.01
7:14:57 PM,0.32,8.97,3.47,0.03,-0.04,0.01
7:14:57 PM,0.32,8.83,3.52,0.03,-0.07,0.01
7:14:58 PM,0.37,8.87,3.44,0.12,0.03,0.01
7:14:58 PM,0.50,8.86,3.31,0.06,-0.02,0.01
7:14:58 PM,-0.14,9.16,4.08,-0.05,-0.02,0.01
7:14:58 PM,-0.24,9.73,2.46,0.16,0.14,0.01
7:14:58 PM,-0.05,9.17,2.62,0.08,0.02,0.01
7:14:58 PM,-0.08,8.97,3.05,-0.00,-0.07,0.01
7:14:58 PM,-0.05,9.05,3.13,-0.02,-0.02,0.01
7:14:58 PM,0.21,9.12,2.97,0.01,-0.01,0.01
7:14:58 PM,0.15,9.09,3.46,-0.02,0.04,0.01
7:14:58 PM,0.11,9.06,3.33,-0.04,0.02,0.01
7:14:58 PM,-0.10,8.86,3.66,-0.08,-0.08,0.01
7:14:59 PM,0.20,8.81,3.83,-0.05,-0.13,0.01
7:14:59 PM,0.10,8.75,3.68,-0.05,-0.09,0.01
7:14:59 PM,0.08,9.02,3.43,-0.03,-0.05,0.01
7:14:59 PM,0.38,8.95,3.60,0.07,-0.02,0.01
7:14:59 PM,-0.01,8.96,3.39,-0.01,-0.01,0.01
7:14:59 PM,-0.07,8.84,3.64,-0.07,-0.04,0.01
7:14:59 PM,-0.10,9.00,3.39,-0.01,0.01,0.01
7:14:59 PM,0.20,8.78,3.56,-0.05,-0.04,0.01
7:14:59 PM,0.29,8.76,3.97,-0.03,-0.10,0.01
7:14:59 PM,0.01,8.78,3.83,-0.00,-0.10,0.01
7:15:00 PM,0.04,9.12,3.14,0.05,0.02,0.01
7:15:00 PM,0.01,9.13,2.87,0.01,-0.04,0.01
7:15:00 PM,0.03,9.13,2.95,-0.02,-0.04,0.01
7:15:08 PM,-0.17,9.30,2.87,0.00,0.01,0.01
7:15:08 PM,-0.05,9.17,3.11,-0.03,0.02,0.01
7:15:08 PM,0.11,9.09,3.20,-0.04,-0.03,0.01
7:15:08 PM,0.12,9.04,3.37,-0.05,-0.02,0.01
7:15:08 PM,-0.02,9.04,3.19,-0.01,-0.01,0.01
7:15:08 PM,-0.05,9.15,2.97,0.01,0.03,0.01
7:15:08 PM,0.12,9.18,2.99,-0.01,-0.00,0.01
7:15:08 PM,-0.05,9.15,2.97,-0.06,-0.01,0.01
7:15:08 PM,0.11,9.10,3.02,-0.01,0.02,0.01
7:15:08 PM,0.15,9.00,3.34,-0.00,-0.01,0.01
7:15:08 PM,0.06,8.99,3.40,-0.04,-0.05,0.01
7:15:08 PM,0.11,9.01,3.28,0.01,-0.02,0.01
7:15:08 PM,0.24,9.12,3.20,0.01,-0.02,0.01
7:15:08 PM,0.31,9.02,3.25,-0.02,-0.06,0.01
7:15:08 PM,0.23,8.85,3.56,0.00,-0.02,0.01
7:15:08 PM,0.42,8.92,3.49,0.06,-0.00,0.01
7:15:08 PM,0.44,8.92,3.49,0.05,-0.03,0.01
7:15:09 PM,0.12,8.93,3.41,0.02,-0.03,0.01
7:15:09 PM,0.00,9.04,3.26,-0.04,-0.04,0.01
7:15:09 PM,0.24,9.03,3.18,0.00,-0.01,0.01
7:15:09 PM,0.49,8.93,3.45,-0.01,-0.06,0.01
7:15:09 PM,0.47,8.75,3.74,-0.00,-0.06,0.01
7:15:09 PM,0.24,9.00,3.20,0.05,-0.02,0.01
7:15:09 PM,0.15,9.03,3.17,-0.02,-0.04,0.01
7:15:09 PM,0.05,9.07,3.20,-0.00,-0.00,0.01
7:15:09 PM,0.14,9.03,3.04,-0.04,0.01,0.01
7:15:10 PM,-0.02,9.22,3.03,0.01,0.01,0.01
7:15:10 PM,-0.31,9.20,2.95,-0.02,0.02,0.01
7:15:10 PM,0.16,9.04,3.16,0.01,-0.00,0.01
7:15:10 PM,-0.04,9.22,3.11,-0.03,0.04,0.01
7:15:10 PM,0.21,8.97,3.23,-0.06,-0.01,0.01
7:15:10 PM,-0.06,8.94,3.52,-0.02,-0.07,0.01
7:15:10 PM,-0.26,8.85,3.69,-0.04,-0.03,0.01
7:15:10 PM,0.10,8.85,3.63,0.04,0.00,0.01
7:15:10 PM,0.25,8.95,3.65,0.03,-0.05,0.01
7:15:10 PM,-0.00,9.06,3.29,0.03,-0.02,0.01
7:15:11 PM,0.30,8.87,3.70,0.00,-0.13,0.01
7:15:11 PM,0.41,8.76,3.88,-0.03,-0.09,0.01
7:15:11 PM,0.42,8.87,3.51,0.08,-0.07,0.01
7:15:11 PM,0.39,8.98,3.30,0.07,-0.05,0.01
7:15:11 PM,0.34,8.98,3.37,0.04,-0.03,0.01
7:15:11 PM,0.47,9.04,3.06,0.08,0.02,0.01
7:15:11 PM,0.43,9.26,2.49,0.17,0.01,0.01
7:15:12 PM,0.12,9.33,2.66,-0.03,0.06,0.01
7:15:12 PM,0.05,9.21,2.79,-0.07,0.03,0.01
7:15:12 PM,-0.21,9.09,3.02,-0.08,0.04,0.01
7:15:12 PM,0.06,9.04,3.24,-0.07,0.00,0.01
7:15:12 PM,-0.05,8.87,3.63,0.00,-0.03,0.01
7:15:12 PM,-0.09,8.94,3.42,0.02,0.03,0.01
7:15:12 PM,0.06,9.13,3.09,-0.01,0.04,0.01
7:15:12 PM,0.22,9.26,2.83,0.01,0.01,0.01
7:15:12 PM,0.13,9.22,2.92,-0.05,0.03,0.01
7:15:12 PM,-0.20,9.19,2.90,-0.09,-0.05,0.01
7:15:13 PM,-0.16,9.17,3.01,0.05,0.06,0.01
7:15:13 PM,0.21,8.92,3.35,-0.01,-0.05,0.01
7:15:13 PM,0.39,8.94,3.26,0.14,0.13,0.01
7:15:13 PM,0.28,8.82,3.22,0.06,-0.00,0.01
7:15:13 PM,0.34,8.96,3.30,0.05,-0.04,0.01
7:15:13 PM,0.17,9.12,2.96,0.01,-0.04,0.01
7:15:16 PM,-0.13,8.95,3.45,0.03,-0.07,0.01
7:15:16 PM,-0.16,9.06,2.99,0.03,0.00,0.01
7:15:16 PM,0.01,9.13,3.02,0.03,0.03,0.01
7:15:16 PM,0.21,8.91,3.38,0.05,0.04,0.01
7:15:16 PM,0.16,8.85,3.39,0.02,-0.01,0.01
7:15:16 PM,0.26,8.89,3.46,-0.02,-0.06,0.01
7:15:16 PM,-0.08,9.09,3.11,-0.03,-0.01,0.01
7:15:16 PM,-0.19,9.15,3.03,-0.02,-0.01,0.01
7:15:16 PM,0.11,9.03,3.21,-0.01,-0.00,0.01
7:15:16 PM,-0.11,9.04,3.02,-0.03,0.01,0.01
7:15:16 PM,0.18,9.05,3.21,-0.03,-0.04,0.01
7:15:16 PM,0.01,9.12,3.00,0.01,0.00,0.01
7:15:16 PM,0.10,9.14,3.19,-0.01,-0.04,0.01
7:15:16 PM,0.19,9.03,3.26,0.08,-0.02,0.01
7:15:16 PM,0.07,9.01,3.19,0.03,-0.04,0.01
7:15:16 PM,0.13,8.92,3.37,0.04,-0.02,0.01
7:15:16 PM,-0.09,8.98,3.26,0.05,0.04,0.01
7:15:17 PM,0.09,8.99,3.15,0.02,-0.01,0.01
7:15:17 PM,0.15,9.04,3.12,-0.03,-0.04,0.01
7:15:17 PM,0.18,8.95,3.42,-0.04,-0.09,0.01
7:15:17 PM,-0.20,9.08,3.22,0.00,-0.00,0.01
7:15:17 PM,-0.01,9.13,3.13,-0.01,-0.03,0.01
7:15:17 PM,0.01,9.08,3.26,-0.01,0.02,0.01
7:15:17 PM,0.22,8.87,3.48,-0.01,-0.06,0.01
7:15:17 PM,0.05,9.01,3.20,0.03,0.01,0.01
7:15:17 PM,-0.05,9.01,3.18,-0.00,-0.01,0.01
7:15:18 PM,-0.07,9.02,3.22,0.03,0.02,0.01
7:15:18 PM,-0.08,8.95,3.30,0.03,0.02,0.01
7:15:18 PM,0.00,8.90,3.61,0.01,-0.02,0.01
7:15:18 PM,0.07,8.97,3.41,0.01,-0.01,0.01
7:15:18 PM,-0.06,9.00,3.21,0.01,-0.01,0.01
7:15:18 PM,0.01,9.08,3.34,0.00,-0.01,0.01
7:15:18 PM,-0.06,9.01,3.20,-0.00,-0.04,0.01
7:15:18 PM,0.03,9.04,3.28,0.02,-0.03,0.01
7:15:18 PM,-0.11,9.19,2.95,0.06,-0.09,0.01
7:15:19 PM,-0.31,9.20,2.94,-0.02,0.02,0.01
7:15:19 PM,-0.12,9.28,2.92,-0.02,0.03,0.01
7:15:19 PM,-0.20,9.10,3.00,0.02,0.05,0.01
7:15:19 PM,-0.15,8.95,3.47,-0.01,-0.02,0.01
7:15:19 PM,0.02,8.86,3.52,0.00,-0.06,0.01
7:15:19 PM,0.16,8.84,3.71,-0.01,-0.09,0.01
7:15:19 PM,0.06,8.96,3.41,0.02,-0.12,0.01
7:15:19 PM,-0.04,8.97,3.35,0.04,-0.12,0.01
7:15:19 PM,-0.09,8.95,3.35,0.02,-0.04,0.01
7:15:20 PM,0.19,9.11,3.18,-0.01,0.01,0.01
7:15:20 PM,-0.02,9.04,3.13,0.03,-0.00,0.01
7:15:20 PM,-0.11,8.97,3.21,0.03,-0.03,0.01
7:16:07 PM,-0.69,8.54,3.23,0.03,0.19,0.01
7:16:09 PM,0.10,8.96,3.38,0.07,-0.01,0.01
7:16:09 PM,0.24,8.95,3.23,0.08,0.03,0.01
7:16:09 PM,0.30,8.98,3.25,0.01,-0.04,0.01
7:16:09 PM,-0.14,9.05,3.22,0.04,-0.02,0.01
7:16:09 PM,0.06,9.03,3.31,0.04,-0.02,0.01
7:16:10 PM,0.12,8.96,3.28,0.03,-0.02,0.01
7:16:10 PM,0.07,8.93,3.45,-0.01,-0.06,0.01
7:16:10 PM,0.14,8.81,3.57,-0.06,-0.03,0.01
7:16:10 PM,-0.21,8.88,3.56,-0.03,-0.03,0.01
7:16:10 PM,0.34,8.66,3.76,0.01,-0.04,0.01
7:16:10 PM,0.16,8.82,3.73,0.01,-0.05,0.01
7:16:10 PM,0.17,8.75,3.77,-0.03,-0.09,0.01
7:16:10 PM,-0.05,8.79,3.58,-0.03,-0.00,0.01
7:16:10 PM,-0.00,8.77,3.72,-0.03,0.00,0.01
7:16:10 PM,0.39,8.72,3.78,0.00,0.01,0.01
7:16:10 PM,0.25,8.84,3.59,-0.03,-0.05,0.01
7:16:11 PM,0.14,8.76,3.75,0.04,-0.01,0.01
7:16:11 PM,-0.04,8.77,3.62,-0.01,0.00,0.01
7:16:13 PM,0.43,8.77,3.58,0.04,-0.01,0.01
7:16:13 PM,0.52,8.72,3.74,0.04,0.03,0.01
7:16:13 PM,0.32,8.78,3.69,0.08,-0.03,0.01
7:16:13 PM,0.36,8.77,3.73,0.10,0.01,0.01
7:16:13 PM,0.36,8.83,3.63,0.06,-0.03,0.01
7:16:13 PM,0.44,8.84,3.61,0.05,-0.01,0.01
7:16:13 PM,0.33,8.73,3.70,0.04,0.04,0.01
7:16:13 PM,0.37,8.76,3.68,0.08,0.05,0.01
7:16:13 PM,0.34,8.75,3.67,0.01,-0.02,0.01
7:16:13 PM,0.07,8.77,3.71,0.05,0.04,0.01
7:16:13 PM,0.32,8.66,3.78,0.03,0.01,0.01
7:16:13 PM,0.36,8.81,3.58,0.02,-0.02,0.01
7:16:13 PM,0.07,8.77,3.62,0.03,-0.02,0.01
7:16:14 PM,0.20,8.79,3.63,0.03,0.02,0.01
7:16:14 PM,0.14,8.67,3.84,-0.04,0.01,0.01
7:16:14 PM,0.26,8.73,3.76,-0.05,-0.07,0.01
7:16:14 PM,-0.25,8.70,3.87,-0.08,-0.05,0.01
7:16:14 PM,-0.07,8.67,3.90,-0.07,-0.05,0.01
7:16:14 PM,-0.09,8.73,3.77,-0.03,-0.02,0.01
7:16:14 PM,-0.18,8.96,3.61,-0.03,0.00,0.01
7:16:14 PM,0.19,8.80,3.66,0.01,-0.03,0.01
7:16:14 PM,-0.02,8.71,3.75,-0.05,-0.09,0.01
7:16:15 PM,-0.12,8.79,3.78,-0.02,-0.06,0.01
7:16:15 PM,0.07,8.71,3.76,0.02,-0.03,0.01
7:16:15 PM,0.25,8.67,3.85,0.04,0.00,0.01
7:16:15 PM,0.12,8.81,3.77,0.08,-0.01,0.01
7:16:15 PM,0.14,8.79,3.77,0.07,-0.01,0.01
7:16:15 PM,0.07,8.69,3.87,0.01,-0.02,0.01
7:16:15 PM,-0.40,8.82,3.56,-0.06,-0.03,0.01
7:16:15 PM,-0.55,8.83,3.65,0.03,0.09,0.01
7:16:15 PM,-0.14,9.00,3.44,-0.05,0.15,0.01
7:16:15 PM,-0.03,8.79,3.64,-0.07,-0.09,0.01
7:16:16 PM,-0.38,8.57,4.45,-0.09,-0.20,0.01
7:16:16 PM,-0.26,8.42,4.42,-0.01,-0.12,0.01
7:16:16 PM,0.23,8.48,4.32,0.05,-0.06,0.01
7:16:16 PM,0.42,8.71,3.86,-0.01,-0.09,0.01
7:16:16 PM,0.31,8.77,3.73,0.02,-0.13,0.01
7:16:16 PM,0.12,8.51,4.07,0.01,-0.08,0.01
7:16:16 PM,0.28,8.74,3.87,0.04,-0.02,0.01
7:16:16 PM,0.21,8.77,3.71,0.02,-0.04,0.01
7:16:16 PM,0.13,8.69,3.84,-0.01,-0.05,0.01
7:16:16 PM,0.22,8.67,3.96,-0.06,-0.06,0.01
7:16:17 PM,0.21,8.71,3.93,0.04,-0.03,0.01
7:16:17 PM,0.03,8.82,3.63,0.08,0.05,0.01
7:16:17 PM,0.32,8.75,3.75,0.04,-0.04,0.01
7:16:17 PM,0.23,8.61,3.96,0.00,-0.07,0.01
7:16:17 PM,0.08,8.73,3.77,0.03,-0.04,0.01
7:16:17 PM,-0.29,8.88,3.50,-0.01,-0.01,0.01
7:16:17 PM,-0.12,8.90,3.59,-0.08,-0.10,0.01
7:16:17 PM,-0.25,8.83,3.73,-0.11,-0.10,0.01
7:16:17 PM,-0.40,8.84,3.72,-0.08,-0.05,0.01
7:16:18 PM,-0.25,8.97,3.73,-0.08,-0.13,0.01
7:16:18 PM,-0.05,8.72,3.97,-0.04,-0.08,0.01
7:16:18 PM,0.35,8.61,3.78,0.05,0.11,0.01
7:16:18 PM,0.10,8.71,3.90,-0.04,-0.06,0.01
7:16:18 PM,0.13,8.63,3.97,-0.06,-0.10,0.01
7:16:18 PM,-0.16,8.68,4.00,-0.04,-0.02,0.01
7:16:18 PM,0.17,8.83,3.59,-0.02,0.03,0.01
7:16:18 PM,0.04,8.75,3.75,-0.04,-0.06,0.01
7:16:18 PM,-0.01,8.80,3.49,0.02,0.03,0.01
7:16:19 PM,-0.23,8.83,3.57,0.01,0.08,0.01
7:16:19 PM,0.30,8.72,3.70,0.01,0.02,0.01
7:16:19 PM,0.40,8.80,3.64,0.10,0.10,0.01
7:16:19 PM,0.23,8.79,3.49,0.01,0.06,0.01
7:16:19 PM,0.25,8.80,3.57,0.03,0.04,0.01
7:16:19 PM,0.02,8.83,3.48,0.02,0.02,0.01
7:16:19 PM,0.25,8.69,3.69,0.06,-0.00,0.01
7:16:19 PM,0.35,8.68,3.80,0.08,0.02,0.01
7:16:19 PM,0.32,8.70,3.79,0.06,0.04,0.01
7:16:19 PM,0.40,8.78,3.81,0.05,-0.04,0.01
7:16:20 PM,0.41,8.44,4.19,-0.04,-0.09,0.01
7:16:20 PM,0.17,8.66,3.91,0.03,-0.08,0.01
7:16:20 PM,-0.00,8.63,3.96,-0.04,-0.08,0.01
7:16:20 PM,0.05,8.72,3.93,-0.00,-0.04,0.01
7:16:20 PM,-0.17,8.73,3.72,-0.01,0.00,0.01
7:16:20 PM,-0.51,8.76,3.86,-0.02,-0.01,0.01
7:16:20 PM,0.01,8.68,3.95,-0.01,0.06,0.01
7:16:20 PM,0.13,8.74,3.69,-0.05,-0.08,0.01
7:16:21 PM,-0.04,8.90,3.58,-0.04,-0.07,0.01
7:16:21 PM,-0.39,8.94,3.44,-0.04,-0.04,0.01
7:16:21 PM,-0.21,8.89,3.47,0.01,0.01,0.01
7:16:21 PM,-0.07,8.91,3.41,0.03,0.05,0.01
7:16:21 PM,0.23,8.84,3.45,0.08,0.11,0.01
7:16:21 PM,0.40,8.92,3.40,0.05,0.05,0.01
7:16:23 PM,0.15,8.82,3.40,0.04,0.05,0.01
7:16:23 PM,0.28,8.66,3.73,-0.02,-0.01,0.01
7:16:23 PM,0.26,8.66,3.83,0.01,0.01,0.01
7:16:23 PM,0.47,8.80,3.68,-0.01,-0.03,0.01
7:16:23 PM,0.43,8.65,3.86,0.03,-0.02,0.01
7:16:23 PM,0.26,8.74,3.71,0.01,-0.04,0.01
7:16:23 PM,0.17,8.81,3.67,-0.01,-0.03,0.01
7:16:23 PM,0.01,8.67,3.72,0.05,0.02,0.01
7:16:23 PM,-0.04,8.81,3.73,-0.00,0.04,0.01
7:16:23 PM,0.03,8.84,3.54,0.04,0.01,0.01
7:16:23 PM,0.16,8.78,3.48,0.04,-0.02,0.01
7:16:23 PM,0.26,8.84,3.67,-0.00,-0.03,0.01
7:16:23 PM,0.29,8.74,3.77,0.03,-0.01,0.01
7:16:23 PM,0.70,8.78,3.56,0.00,0.02,0.01
7:16:24 PM,0.22,8.77,3.66,0.06,0.04,0.01
7:16:24 PM,0.06,8.73,3.69,0.10,0.13,0.01
7:16:24 PM,0.55,8.80,3.58,0.05,0.04,0.01
7:16:24 PM,1.94,8.52,3.92,-0.03,-0.09,0.01
7:16:24 PM,-0.13,8.88,3.77,0.04,-0.06,0.01
7:16:24 PM,0.49,8.83,3.59,0.02,-0.05,0.01
7:16:24 PM,0.05,8.77,3.69,0.01,-0.01,0.01
7:16:24 PM,-0.10,8.58,4.21,0.08,-0.03,0.01
7:16:24 PM,0.70,8.49,4.08,0.09,-0.06,0.01
7:16:25 PM,0.46,8.71,4.04,0.08,-0.12,0.01
7:16:25 PM,0.15,8.89,3.48,0.09,0.03,0.01
7:16:25 PM,0.34,8.95,3.13,0.07,0.04,0.01
7:16:25 PM,0.57,8.90,3.42,0.03,0.00,0.01
7:16:25 PM,0.12,8.80,3.42,0.00,-0.06,0.01
7:16:25 PM,0.00,9.06,3.23,0.04,0.04,0.01
7:16:25 PM,-0.26,9.07,3.41,0.01,0.02,0.01
7:16:25 PM,0.24,8.92,3.53,-0.00,0.04,0.01
7:16:25 PM,-0.03,8.75,3.68,-0.01,-0.04,0.01
7:16:25 PM,0.01,8.71,3.74,-0.04,-0.06,0.01
7:16:26 PM,-0.11,8.70,3.79,-0.01,0.03,0.01
7:16:26 PM,0.25,8.65,3.87,-0.05,-0.04,0.01
7:16:26 PM,0.13,8.64,3.87,-0.10,-0.09,0.01
7:16:26 PM,-0.28,8.78,3.63,-0.12,-0.13,0.01
7:16:26 PM,0.11,8.87,3.77,-0.03,-0.04,0.01
7:16:26 PM,-0.12,8.80,3.86,0.01,0.02,0.01
7:16:26 PM,0.23,8.85,3.60,0.03,0.04,0.01
7:16:26 PM,0.14,8.83,3.74,0.06,0.01,0.01
7:16:26 PM,0.20,8.69,3.79,0.02,-0.03,0.01
7:16:27 PM,0.44,8.70,3.84,0.05,-0.01,0.01
7:16:27 PM,0.22,8.75,3.86,0.01,-0.04,0.01
7:16:27 PM,0.16,8.73,3.62,0.02,-0.04,0.01
7:16:27 PM,0.37,8.74,3.70,0.06,0.04,0.01
7:16:27 PM,0.56,8.73,3.68,0.05,-0.03,0.01
7:16:27 PM,0.65,8.60,3.97,0.06,-0.04,0.01
7:16:27 PM,0.22,8.61,3.99,0.04,-0.08,0.01
7:16:27 PM,0.33,8.56,4.10,0.04,-0.06,0.01
7:16:27 PM,0.61,8.57,4.00,-0.01,-0.09,0.01
7:16:27 PM,0.56,8.71,3.85,0.02,-0.13,0.01
7:16:28 PM,0.25,8.74,3.72,0.07,-0.04,0.01
7:16:28 PM,0.53,8.66,3.79,0.05,0.00,0.01
7:16:28 PM,0.45,8.75,3.59,0.02,-0.04,0.01
7:16:28 PM,0.21,8.93,3.45,-0.00,-0.01,0.01
7:16:28 PM,0.35,8.91,3.47,-0.03,-0.00,0.01
7:16:28 PM,0.47,8.71,3.79,-0.01,-0.06,0.01
7:16:28 PM,0.44,8.86,3.55,-0.02,-0.05,0.01
7:16:28 PM,0.02,8.79,3.79,-0.09,-0.07,0.01
7:16:28 PM,0.24,8.65,4.01,-0.04,-0.00,0.01
7:16:29 PM,0.22,8.79,3.75,0.01,-0.03,0.01
7:16:29 PM,0.26,8.66,3.88,-0.02,-0.08,0.01
7:16:29 PM,0.01,8.71,3.73,-0.03,-0.03,0.01
7:16:29 PM,0.05,8.44,4.13,-0.03,-0.03,0.01
7:16:29 PM,0.24,8.53,4.23,0.03,-0.07,0.01
7:16:29 PM,0.14,8.67,4.11,0.07,-0.10,0.01
7:16:29 PM,0.28,8.64,3.82,0.08,0.02,0.01
7:16:29 PM,0.42,8.71,3.96,0.07,-0.07,0.01
7:16:29 PM,0.63,8.84,3.75,0.12,-0.07,0.01
7:16:30 PM,0.68,8.87,3.33,0.08,0.00,0.01
7:16:30 PM,0.47,9.00,3.30,0.16,0.04,0.01
7:16:30 PM,0.72,8.89,3.39,0.08,0.06,0.01
7:16:30 PM,0.69,8.88,3.17,-0.04,-0.00,0.01
7:16:30 PM,-0.00,8.96,3.41,-0.12,-0.06,0.01
7:16:30 PM,-0.24,8.86,3.68,-0.10,-0.04,0.01
7:16:30 PM,-0.30,8.59,4.19,-0.06,0.01,0.01
7:16:30 PM,0.49,8.65,3.85,-0.03,-0.03,0.01
7:16:30 PM,0.30,8.58,4.16,-0.06,-0.11,0.01
7:16:30 PM,0.51,8.60,4.14,-0.01,-0.14,0.01
7:16:31 PM,0.37,8.60,4.12,0.06,-0.04,0.01
7:16:31 PM,0.32,9.08,3.42,0.15,-0.18,0.01
7:16:31 PM,0.44,8.91,3.32,0.15,0.16,0.01
7:16:31 PM,0.79,8.83,3.17,0.08,0.11,0.01
7:16:31 PM,0.59,8.78,3.34,0.11,0.14,0.01
7:16:31 PM,0.68,8.88,3.30,0.01,0.05,0.01
7:16:31 PM,0.69,8.81,3.50,0.05,-0.06,0.01
7:16:31 PM,0.41,8.66,3.83,-0.07,-0.06,0.01
7:16:31 PM,0.22,8.57,3.83,-0.14,-0.03,0.01
7:16:32 PM,0.25,8.53,4.14,-0.05,-0.14,0.01
7:16:32 PM,0.22,8.92,3.80,0.08,-0.05,0.01
7:16:32 PM,0.26,8.51,4.10,-0.04,-0.07,0.01
7:16:32 PM,0.61,8.71,3.80,-0.01,-0.05,0.01
7:16:32 PM,0.38,8.96,3.42,0.06,0.05,0.01
7:16:32 PM,0.59,8.85,3.38,0.05,0.10,0.01
7:16:32 PM,0.70,8.86,3.25,0.06,0.04,0.01
7:16:32 PM,0.89,8.81,3.56,0.02,-0.24,0.01
7:16:32 PM,0.35,8.82,3.54,0.06,-0.00,0.01
7:16:33 PM,0.50,8.84,3.44,0.06,0.04,0.01
7:16:33 PM,0.96,8.81,3.34,0.04,-0.21,0.01
7:16:33 PM,0.66,8.96,3.40,-0.01,-0.03,0.01
7:16:33 PM,0.89,8.89,3.57,-0.09,-0.06,0.01
7:16:33 PM,-0.16,9.00,3.32,-0.04,0.05,0.01
7:16:33 PM,-0.18,8.69,3.77,-0.07,-0.05,0.01
7:16:33 PM,0.60,8.55,4.06,0.04,0.04,0.01
7:16:33 PM,0.74,8.65,3.78,0.09,0.09,0.01
7:16:33 PM,0.55,8.75,3.46,0.15,0.10,0.01
7:16:33 PM,0.30,8.87,3.29,0.07,0.15,0.01
7:16:33 PM,0.64,8.34,3.96,0.04,0.01,0.01
7:16:34 PM,0.63,8.62,3.66,0.01,0.01,0.01
7:16:34 PM,0.30,8.75,3.71,0.06,-0.03,0.01
7:16:34 PM,0.39,8.95,3.59,0.07,-0.09,0.01
7:16:34 PM,0.45,8.58,3.90,0.03,-0.08,0.01
7:16:34 PM,-0.97,8.71,3.90,-0.00,-0.11,0.01
7:16:34 PM,0.01,8.52,3.99,0.05,-0.00,0.01
7:16:34 PM,0.09,8.65,3.82,0.07,0.01,0.01
7:16:34 PM,0.49,8.56,4.05,0.02,-0.04,0.01
7:16:34 PM,0.37,8.76,3.93,0.02,-0.05,0.01
7:16:35 PM,-0.08,8.39,4.49,-0.06,-0.08,0.01
7:16:35 PM,0.03,8.59,4.12,-0.09,-0.08,0.01
7:16:35 PM,0.02,8.76,3.72,-0.03,0.01,0.01
7:16:35 PM,0.25,8.92,3.43,0.03,0.06,0.01
7:16:35 PM,0.22,8.80,3.54,-0.05,-0.00,0.01
7:16:35 PM,-0.00,8.95,3.43,-0.04,0.01,0.01
7:16:35 PM,0.08,8.77,3.67,-0.02,-0.03,0.01
7:16:35 PM,0.13,8.81,3.62,0.01,0.07,0.01
7:16:35 PM,-0.06,8.71,3.90,-0.10,-0.09,0.01
7:16:36 PM,-0.02,8.57,4.25,-0.02,-0.06,0.01
7:16:36 PM,0.16,8.65,4.09,0.02,-0.03,0.01
7:16:36 PM,0.23,8.70,4.08,0.03,0.08,0.01
7:16:36 PM,0.58,8.56,3.99,-0.09,-0.06,0.01
7:16:36 PM,0.57,8.60,4.12,0.02,-0.07,0.01
7:16:36 PM,-0.17,9.06,3.23,0.07,-0.01,0.01
7:16:36 PM,0.07,9.09,2.95,0.09,0.15,0.01
7:16:36 PM,0.32,8.94,3.26,0.03,0.13,0.01
7:16:36 PM,0.73,8.89,3.31,-0.03,0.05,0.01
7:16:36 PM,0.50,8.89,3.56,-0.00,-0.05,0.01
7:16:37 PM,0.39,8.78,3.45,-0.00,0.02,0.01
7:16:37 PM,0.19,9.04,3.45,0.00,0.01,0.01
7:16:37 PM,0.17,8.60,3.84,-0.01,0.10,0.01
7:16:37 PM,-0.04,8.59,3.96,-0.06,-0.01,0.01
7:16:37 PM,0.14,9.03,3.37,-0.01,0.07,0.01
7:16:37 PM,-0.04,9.00,3.37,0.01,0.03,0.01
7:16:37 PM,0.12,9.01,3.37,0.02,0.03,0.01
7:16:37 PM,0.34,8.75,3.48,0.02,0.10,0.01
7:16:37 PM,0.22,8.83,3.62,-0.04,0.02,0.01
7:16:38 PM,0.36,8.74,3.81,-0.04,-0.06,0.01
7:16:38 PM,0.54,8.71,3.89,-0.04,-0.17,0.01
7:16:38 PM,-0.03,8.72,3.87,0.03,-0.06,0.01
7:16:38 PM,-0.03,8.71,3.76,0.08,0.08,0.01
7:16:38 PM,0.40,8.97,3.37,0.10,0.07,0.01
7:16:38 PM,0.06,8.83,3.76,0.00,-0.02,0.01
7:16:38 PM,0.08,8.66,3.85,0.10,0.05,0.01
7:16:38 PM,0.38,8.66,3.72,0.06,0.02,0.01
7:16:38 PM,0.27,8.83,3.71,0.05,-0.05,0.01
7:16:38 PM,-0.20,8.82,3.74,0.01,0.05,0.01
7:16:39 PM,-0.81,8.90,3.68,0.05,0.04,0.01
7:16:39 PM,0.23,8.82,3.60,0.12,0.18,0.01
7:16:39 PM,0.11,8.71,3.60,0.07,0.08,0.01
7:16:39 PM,0.03,8.75,3.96,0.13,0.10,0.01
7:16:39 PM,0.26,8.73,3.71,0.06,0.09,0.01
7:16:39 PM,0.71,8.69,3.74,0.02,0.00,0.01
7:16:39 PM,0.65,8.79,3.63,-0.00,-0.08,0.01
7:16:39 PM,0.05,8.81,3.67,-0.03,-0.16,0.01
7:16:39 PM,0.35,8.44,3.71,-0.19,-0.22,0.01
7:16:40 PM,0.10,9.20,3.49,0.01,0.16,0.01
7:16:40 PM,0.67,8.81,3.91,0.02,0.02,0.01
7:16:40 PM,0.21,8.36,3.87,-0.08,-0.10,0.01
7:16:40 PM,0.12,8.95,3.42,-0.06,-0.05,0.01
7:16:40 PM,-0.30,9.03,3.38,-0.03,0.00,0.01
7:16:40 PM,-0.17,8.92,3.45,0.03,0.03,0.01
7:16:40 PM,0.08,8.91,3.45,0.08,0.05,0.01
7:16:40 PM,0.51,9.11,2.88,0.04,0.09,0.01
7:16:40 PM,0.27,8.95,3.20,-0.09,-0.02,0.01
7:16:40 PM,0.11,8.91,3.38,-0.02,0.03,0.01
7:16:41 PM,0.36,8.93,3.48,0.05,0.08,0.01
7:16:41 PM,0.34,8.81,3.34,-0.00,-0.05,0.01
7:16:41 PM,0.21,8.77,3.63,-0.02,-0.03,0.01
7:16:41 PM,0.14,8.88,3.34,-0.06,-0.04,0.01
7:16:41 PM,0.21,8.81,3.64,-0.07,-0.12,0.01
7:16:41 PM,0.30,8.80,3.71,0.07,-0.01,0.01
7:16:41 PM,0.30,8.75,3.62,0.00,-0.03,0.01
7:16:41 PM,0.48,8.73,3.91,0.02,-0.08,0.01
7:16:41 PM,0.16,8.71,3.89,0.04,-0.07,0.01
7:16:42 PM,0.05,8.82,3.58,0.03,-0.03,0.01
7:16:42 PM,0.10,8.81,3.56,0.00,0.01,0.01
7:16:42 PM,0.38,8.91,3.41,0.03,0.01,0.01
7:16:42 PM,0.58,8.76,3.68,0.01,-0.01,0.01
7:16:42 PM,0.57,8.63,3.89,0.00,-0.06,0.01
7:16:42 PM,0.13,8.66,4.00,-0.01,-0.05,0.01
7:16:42 PM,0.22,8.62,4.08,0.03,-0.02,0.01
7:16:42 PM,0.34,8.50,4.07,-0.02,-0.06,0.01
7:16:42 PM,0.24,8.60,4.11,-0.02,-0.09,0.01
7:16:43 PM,0.22,8.73,3.83,-0.02,-0.07,0.01
7:16:43 PM,0.04,8.83,3.59,-0.03,-0.05,0.01
7:16:43 PM,0.11,8.86,3.63,-0.02,-0.02,0.01
7:16:43 PM,0.06,8.68,3.89,-0.06,-0.02,0.01
7:16:43 PM,0.14,8.79,3.63,-0.05,0.00,0.01
7:16:43 PM,0.19,8.83,3.61,-0.05,0.00,0.01
7:16:43 PM,0.25,8.73,3.75,-0.06,-0.02,0.01
7:16:43 PM,0.06,8.76,3.71,-0.06,-0.06,0.01
7:16:43 PM,-0.13,8.74,3.62,-0.00,0.01,0.01
7:16:43 PM,0.02,8.86,3.61,-0.11,0.01,0.01
7:16:44 PM,0.33,8.69,3.75,-0.03,-0.05,0.01
7:16:44 PM,0.07,8.78,3.73,0.00,0.00,0.01
7:16:44 PM,0.29,8.76,3.77,0.04,-0.02,0.01
7:16:44 PM,0.21,8.79,3.60,0.07,0.03,0.01
7:16:44 PM,0.13,8.87,3.43,0.06,0.08,0.01
7:16:44 PM,0.20,8.70,3.68,0.03,0.06,0.01
7:16:44 PM,0.51,8.72,3.84,0.01,-0.01,0.01
7:16:44 PM,0.54,8.61,4.06,-0.01,-0.06,0.01
7:16:44 PM,0.36,8.64,3.80,-0.07,-0.04,0.01
7:16:44 PM,0.63,8.61,3.87,-0.01,-0.05,0.01
7:16:45 PM,0.37,8.55,3.96,-0.02,-0.10,0.01
7:16:45 PM,-0.50,8.62,3.97,0.02,-0.03,0.01
7:16:45 PM,-0.34,8.78,3.70,0.03,0.17,0.01
7:16:45 PM,0.58,8.63,3.72,0.02,0.15,0.01
7:16:45 PM,1.00,8.56,3.96,-0.02,-0.11,0.01
7:16:45 PM,0.26,8.59,4.05,-0.04,-0.10,0.01
7:16:45 PM,-0.23,8.81,3.58,-0.04,-0.06,0.01
7:16:45 PM,-0.15,8.86,3.70,0.03,0.05,0.01
7:16:46 PM,0.42,8.59,4.04,-0.00,0.05,0.01
7:16:46 PM,0.48,8.55,4.06,-0.03,-0.08,0.01
7:16:46 PM,0.27,8.65,3.91,-0.00,-0.08,0.01
7:16:46 PM,-0.13,8.60,4.09,-0.04,-0.07,0.01
7:16:46 PM,0.14,8.49,4.27,0.02,0.00,0.01
7:16:46 PM,0.36,8.46,4.24,0.00,-0.08,0.01
7:16:46 PM,0.34,8.44,4.41,0.02,-0.09,0.01
7:16:46 PM,-0.02,8.51,4.23,0.02,-0.08,0.01
7:16:46 PM,0.01,8.56,4.21,0.05,-0.06,0.01
7:16:46 PM,0.31,8.58,4.13,0.07,0.01,0.01
7:16:47 PM,0.78,8.51,4.07,0.05,-0.03,0.01
7:16:47 PM,0.36,8.66,3.94,0.02,-0.08,0.01
7:16:47 PM,0.17,8.55,4.01,0.04,-0.05,0.01
7:16:47 PM,0.12,8.59,4.00,0.07,-0.05,0.01
7:16:47 PM,0.18,8.83,3.65,0.08,0.05,0.01
7:16:47 PM,0.28,8.61,4.11,0.04,-0.06,0.01
7:16:47 PM,0.62,8.47,4.13,-0.02,-0.10,0.01
7:16:47 PM,0.43,8.54,4.19,0.02,-0.11,0.01
7:16:47 PM,0.41,8.49,4.31,0.04,-0.16,0.01
7:16:47 PM,0.12,8.59,4.20,0.11,-0.05,0.01
7:16:48 PM,0.35,8.62,3.91,0.10,0.02,0.01
7:16:48 PM,0.51,8.48,4.36,0.11,-0.03,0.01
7:16:48 PM,0.46,8.45,4.39,0.10,-0.03,0.01
7:16:48 PM,0.65,8.47,4.18,0.09,-0.01,0.01
7:16:48 PM,0.88,8.67,3.87,0.07,-0.05,0.01
7:16:48 PM,0.04,8.65,3.95,-0.01,-0.14,0.01
7:16:48 PM,0.43,8.73,3.61,-0.01,-0.01,0.01
7:16:48 PM,0.29,8.61,3.71,0.00,0.11,0.01
7:16:48 PM,0.47,8.66,3.67,-0.06,0.03,0.01
7:16:49 PM,0.45,8.90,3.45,0.07,0.03,0.01
7:16:49 PM,0.33,8.60,4.12,-0.04,-0.03,0.01
7:16:49 PM,0.35,8.61,4.08,-0.01,-0.06,0.01
7:16:49 PM,-0.09,8.78,3.74,0.05,0.04,0.01
7:16:49 PM,0.07,8.61,4.06,0.00,0.05,0.01
7:16:49 PM,0.14,8.62,3.72,-0.00,0.07,0.01
7:16:49 PM,0.44,8.73,3.80,-0.09,-0.08,0.01
7:16:49 PM,0.27,8.81,3.73,-0.01,-0.09,0.01
7:16:49 PM,0.02,8.76,3.68,-0.00,0.02,0.01
7:16:49 PM,0.03,8.79,3.50,-0.03,0.07,0.01
7:16:50 PM,0.19,8.77,3.79,0.00,0.04,0.01
7:16:50 PM,0.41,8.73,3.77,0.05,0.08,0.01
7:16:50 PM,0.69,8.55,4.04,-0.00,-0.05,0.01
7:16:50 PM,0.58,8.64,3.98,-0.06,-0.23,0.01
7:16:50 PM,-0.37,8.85,3.73,0.02,-0.02,0.01
7:16:50 PM,-0.17,8.78,3.74,0.00,-0.01,0.01
7:16:50 PM,0.16,8.60,4.10,0.02,-0.06,0.01
7:16:50 PM,-0.07,8.67,4.09,0.03,-0.07,0.01
7:16:50 PM,0.21,8.54,4.22,0.09,-0.03,0.01
7:16:51 PM,0.64,8.55,4.08,0.07,0.01,0.01
7:16:51 PM,0.73,8.59,3.83,0.05,0.02,0.01
7:16:51 PM,0.58,8.61,3.89,-0.03,-0.14,0.01
7:16:51 PM,0.13,8.53,3.90,-0.00,-0.12,0.01
7:16:51 PM,0.17,8.70,3.80,0.03,0.03,0.01
7:16:51 PM,0.16,8.76,3.72,-0.00,0.03,0.01
7:16:51 PM,0.07,8.70,3.73,-0.01,-0.01,0.01
7:16:51 PM,0.19,8.69,3.93,-0.00,-0.02,0.01
7:16:51 PM,0.29,8.69,3.79,0.02,-0.04,0.01
7:16:52 PM,0.28,8.69,4.02,0.02,-0.03,0.01
7:16:52 PM,0.36,8.67,3.72,0.03,-0.05,0.01
7:16:52 PM,0.51,8.61,3.85,-0.09,-0.14,0.01
7:16:52 PM,-0.11,8.68,3.86,-0.06,0.01,0.01
7:16:52 PM,0.20,8.64,3.80,-0.03,-0.03,0.01
7:16:52 PM,0.11,8.61,4.04,-0.03,-0.02,0.01
7:16:52 PM,0.12,8.50,4.24,-0.03,-0.03,0.01
7:16:52 PM,0.00,8.82,3.69,-0.05,-0.08,0.01
7:16:52 PM,0.20,8.72,3.69,-0.05,-0.09,0.01
7:16:52 PM,-0.09,8.89,3.52,0.03,-0.01,0.01
7:16:53 PM,0.27,8.74,3.77,-0.02,-0.09,0.01
7:16:53 PM,0.05,8.62,3.94,-0.00,-0.06,0.01
7:16:53 PM,-0.12,8.67,3.91,0.01,0.01,0.01
7:16:53 PM,0.14,8.64,3.98,0.00,0.00,0.01
7:16:53 PM,0.40,8.63,3.92,0.01,-0.03,0.01
7:16:53 PM,-0.03,8.69,3.89,-0.05,-0.08,0.01
7:16:53 PM,-0.32,8.71,3.85,0.01,0.03,0.01
7:16:53 PM,0.03,8.71,3.85,0.03,0.08,0.01
7:16:53 PM,0.41,8.64,3.94,0.01,-0.01,0.01
7:16:53 PM,0.14,8.64,3.91,0.02,0.01,0.01
7:16:54 PM,0.17,8.68,3.79,0.05,0.07,0.01
7:16:54 PM,0.27,8.71,3.75,0.02,0.02,0.01
7:16:54 PM,0.35,8.63,3.82,0.04,0.03,0.01
7:16:54 PM,0.40,8.61,3.89,0.07,0.02,0.01
7:16:54 PM,0.17,8.67,3.77,0.05,-0.02,0.01
7:16:54 PM,0.11,8.72,3.80,0.02,-0.00,0.01
7:16:54 PM,0.27,8.53,4.13,0.02,-0.00,0.01
7:16:54 PM,0.31,8.64,3.95,0.08,0.04,0.01
7:16:55 PM,0.28,8.61,3.97,0.03,-0.02,0.01
7:16:55 PM,0.01,8.83,3.80,-0.01,-0.08,0.01
7:16:55 PM,0.37,8.63,3.91,0.03,-0.00,0.01
7:16:55 PM,0.26,8.61,3.90,-0.04,-0.05,0.01
7:16:55 PM,-0.06,8.72,3.80,-0.02,-0.01,0.01
7:16:55 PM,0.03,8.64,4.00,0.04,0.02,0.01
7:16:55 PM,0.11,8.53,4.06,0.02,0.05,0.01
7:16:55 PM,0.19,8.64,4.00,-0.08,-0.04,0.01
7:16:55 PM,0.14,9.04,4.05,-0.27,0.09,0.01
7:16:55 PM,-0.44,8.49,4.31,0.04,-0.02,0.01
7:16:55 PM,-0.00,8.58,4.19,0.19,0.01,0.01
7:16:56 PM,0.10,8.52,4.33,0.01,-0.02,0.01
7:16:56 PM,-0.11,8.34,4.45,0.02,-0.03,0.01
7:16:56 PM,-0.17,8.37,4.43,-0.03,-0.04,0.01
7:16:56 PM,-0.27,8.45,4.27,-0.00,0.01,0.01
7:16:56 PM,-0.20,8.51,4.20,0.03,0.07,0.01
7:16:56 PM,0.13,8.54,4.09,0.02,0.05,0.01
7:16:56 PM,0.23,8.63,4.07,0.03,0.04,0.01
7:16:56 PM,0.19,8.68,3.80,-0.03,-0.08,0.01
7:16:56 PM,0.02,8.56,4.01,-0.00,-0.03,0.01
7:16:57 PM,0.00,8.47,4.09,0.05,-0.01,0.01
7:16:57 PM,0.19,8.40,4.33,-0.06,-0.04,0.01
7:16:57 PM,0.17,8.42,4.32,-0.05,-0.10,0.01
7:16:57 PM,-0.55,8.66,4.09,0.01,-0.10,0.01
7:16:57 PM,-0.29,8.61,4.00,0.02,0.08,0.01
7:16:57 PM,0.05,8.44,4.26,0.07,0.07,0.01
7:16:57 PM,0.45,8.59,4.18,0.01,0.03,0.01
7:16:57 PM,0.19,8.55,4.01,0.02,-0.03,0.01
7:16:57 PM,0.05,8.57,4.00,0.02,-0.01,0.01
7:16:58 PM,0.06,8.52,4.07,0.05,0.00,0.01
7:16:58 PM,-0.14,8.41,4.32,0.01,-0.05,0.01
7:16:58 PM,-0.26,8.41,4.28,0.02,0.02,0.01
7:16:59 PM,0.13,8.44,4.34,0.06,0.06,0.01
7:16:59 PM,0.64,8.39,4.37,0.01,-0.06,0.01
7:16:59 PM,-0.23,8.55,4.07,0.02,-0.01,0.01
7:16:59 PM,-0.24,8.52,4.28,-0.01,-0.01,0.01
7:16:59 PM,0.06,8.66,4.00,0.01,0.00,0.01
7:16:59 PM,0.45,8.65,3.95,-0.04,-0.05,0.01
7:16:59 PM,0.01,8.59,3.98,-0.02,-0.07,0.01
7:16:59 PM,-0.20,8.70,3.76,0.04,-0.05,0.01
7:16:59 PM,-0.02,8.69,3.91,0.07,0.04,0.01
7:16:59 PM,0.05,8.43,4.18,-0.07,-0.03,0.01
7:16:59 PM,0.24,8.54,4.19,-0.02,-0.08,0.01
7:17:00 PM,0.09,8.56,4.17,-0.06,-0.10,0.01
7:17:00 PM,-0.51,8.42,4.32,-0.03,-0.04,0.01
7:17:00 PM,-0.28,8.46,4.46,-0.02,-0.08,0.01
7:17:00 PM,0.09,8.40,4.53,0.07,-0.05,0.01
7:17:00 PM,-0.00,8.45,4.37,0.05,-0.11,0.01
7:17:00 PM,0.27,8.49,4.36,0.06,-0.06,0.01
7:17:00 PM,0.30,8.33,3.94,0.07,0.14,0.01
7:17:00 PM,-0.05,8.81,3.48,0.10,0.17,0.01
7:17:01 PM,0.42,9.25,2.94,0.24,0.09,0.01
7:17:01 PM,0.80,8.88,3.45,0.03,0.03,0.01
7:17:01 PM,0.59,8.51,3.95,-0.02,-0.07,0.01
7:17:01 PM,-0.21,8.60,4.10,-0.00,-0.06,0.01
7:17:01 PM,-0.08,8.38,4.39,-0.01,-0.01,0.01
7:17:01 PM,0.03,8.54,4.19,0.01,0.04,0.01
7:17:01 PM,0.23,8.51,4.12,-0.01,-0.04,0.01
7:17:01 PM,0.46,8.53,4.26,0.05,0.01,0.01
7:17:01 PM,0.54,8.56,3.93,0.02,-0.06,0.01
7:17:01 PM,0.33,8.56,3.96,-0.02,-0.09,0.01
7:17:01 PM,0.18,8.73,3.68,0.01,-0.06,0.01
