Timestamp,Accel X,Accel Y,Accel Z,Gyro X,Gyro Y,Gyro Z
8:27:41 PM,8.87,0.39,-4.37,0.23,-0.07,0.01
8:27:41 PM,8.99,0.43,-5.11,0.14,0.65,0.01
8:27:41 PM,8.93,0.78,-2.98,0.02,0.44,0.01
8:27:42 PM,9.23,0.47,-3.68,0.03,0.07,0.01
8:27:42 PM,9.41,0.57,-2.64,0.05,0.09,0.01
8:27:42 PM,9.47,0.68,-3.66,0.05,0.19,0.01
8:27:42 PM,9.66,0.52,-2.88,0.15,0.07,0.01
8:27:42 PM,10.01,1.53,-2.98,0.07,1.10,0.00
8:27:42 PM,9.54,0.97,-2.71,-0.00,-0.32,0.02
8:27:42 PM,8.34,0.82,-2.50,0.12,0.24,0.01
8:27:42 PM,9.23,1.07,-2.14,0.12,0.65,0.01
8:27:43 PM,9.26,1.61,-1.99,0.06,0.12,0.01
8:27:43 PM,8.40,1.57,-1.62,-0.08,-0.11,0.01
8:27:43 PM,8.97,1.41,-1.88,-0.03,-0.04,0.01
8:27:43 PM,9.06,1.43,-1.95,0.05,-0.17,0.01
8:27:43 PM,8.99,1.29,-1.94,-0.04,-0.06,0.01
8:27:43 PM,9.33,1.23,-2.18,0.09,-0.01,0.01
8:27:43 PM,9.43,1.10,-2.15,0.01,-0.16,0.01
8:27:43 PM,9.41,1.14,-1.57,0.13,-0.09,0.01
8:27:43 PM,9.21,1.07,-2.40,0.02,0.02,0.01
8:27:43 PM,9.11,1.18,-2.40,-0.07,-0.08,0.01
8:27:43 PM,8.95,0.61,-2.21,-0.09,-0.11,0.01
8:27:44 PM,9.25,0.96,-2.38,0.03,0.00,0.01
8:27:44 PM,9.01,0.96,-2.52,0.04,0.03,0.01
8:27:44 PM,9.04,0.92,-2.50,-0.00,-0.06,0.01
8:27:44 PM,8.90,0.91,-2.43,-0.02,-0.02,0.01
8:27:44 PM,9.19,0.84,-2.37,0.05,-0.07,0.01
8:27:44 PM,9.17,0.83,-2.28,0.02,-0.03,0.01
8:27:44 PM,9.11,0.81,-2.54,-0.01,-0.05,0.01
8:27:44 PM,9.03,0.77,-2.60,0.02,-0.03,0.01
8:27:44 PM,9.21,0.84,-2.49,0.01,-0.04,0.01
8:27:45 PM,9.19,0.88,-2.54,0.02,-0.07,0.01
8:27:45 PM,9.14,0.77,-2.42,0.02,-0.07,0.01
8:27:45 PM,8.91,0.85,-2.79,-0.06,-0.00,0.01
8:27:45 PM,8.86,0.86,-2.91,-0.03,-0.09,0.01
8:27:45 PM,8.75,0.66,-2.42,-0.01,-0.11,0.01
8:27:45 PM,9.13,0.79,-2.38,-0.01,-0.13,0.01
8:27:45 PM,9.00,0.79,-2.70,-0.02,-0.06,0.01
8:27:45 PM,8.84,0.84,-3.13,-0.06,-0.04,0.01
8:27:45 PM,9.13,0.91,-2.99,-0.02,-0.01,0.01
8:27:45 PM,9.21,0.77,-2.73,0.02,-0.11,0.01
8:27:46 PM,8.78,0.75,-2.76,-0.03,0.01,0.01
8:27:46 PM,8.38,0.82,-2.78,-0.09,-0.03,0.01
8:27:46 PM,9.25,0.87,-3.02,0.07,0.37,0.01
8:27:46 PM,8.90,0.87,-2.03,0.11,-0.12,0.01
8:27:46 PM,9.15,0.72,-2.69,0.02,0.02,0.01
8:27:46 PM,9.44,0.91,-2.38,0.08,-0.22,0.01
8:27:46 PM,9.61,1.03,-2.33,0.05,-0.12,0.01
8:27:46 PM,9.15,0.91,-2.89,-0.07,-0.03,0.01
8:27:46 PM,8.99,0.93,-2.81,-0.01,-0.09,0.01
8:27:47 PM,9.27,0.94,-2.93,0.07,0.02,0.01
8:27:47 PM,9.32,0.90,-2.77,0.10,0.12,0.01
8:27:47 PM,9.19,0.79,-2.91,0.12,0.10,0.01
8:27:47 PM,9.61,0.77,-2.29,0.10,-0.12,0.01
8:27:47 PM,9.32,0.72,-2.60,-0.02,-0.12,0.01
8:27:47 PM,9.62,-0.28,-2.56,-0.34,-0.24,0.01
8:27:47 PM,9.02,0.60,-2.42,0.09,-0.03,0.01
8:27:47 PM,9.19,0.81,-2.78,0.08,0.01,0.01
8:27:47 PM,9.32,0.70,-2.58,0.05,-0.05,0.01
8:27:47 PM,9.06,0.76,-2.80,-0.09,-0.09,0.01
8:27:48 PM,9.08,0.83,-3.15,-0.06,-0.08,0.01
8:27:48 PM,8.79,0.75,-3.24,-0.02,-0.06,0.01
8:27:48 PM,9.15,0.79,-2.90,-0.01,-0.04,0.01
8:27:48 PM,8.60,0.79,-3.10,-0.06,-0.03,0.01
8:27:48 PM,8.42,0.95,-3.96,0.07,0.16,0.01
8:27:48 PM,8.82,0.88,-2.88,0.12,0.08,0.01
8:27:48 PM,8.68,0.87,-2.99,0.04,0.08,0.01
8:27:48 PM,8.69,0.82,-3.10,0.02,0.04,0.01
8:27:48 PM,8.89,0.82,-2.96,-0.01,-0.02,0.01
8:27:49 PM,8.67,0.89,-3.05,0.05,0.10,0.01
8:27:49 PM,8.94,0.89,-2.88,0.09,0.17,0.01
8:27:49 PM,8.61,0.87,-2.96,0.07,0.09,0.01
8:27:49 PM,8.77,0.84,-3.43,0.01,0.14,0.01
8:27:49 PM,8.95,0.85,-3.12,0.04,0.04,0.01
8:27:49 PM,8.75,0.67,-2.68,0.04,-0.04,0.01
8:27:49 PM,9.07,0.71,-2.88,-0.04,-0.04,0.01
8:27:49 PM,8.99,0.70,-2.82,-0.03,-0.00,0.01
8:27:49 PM,9.00,0.61,-2.97,-0.04,-0.02,0.01
8:27:49 PM,9.06,0.64,-2.71,-0.01,-0.15,0.01
8:27:50 PM,9.28,0.74,-2.81,0.00,-0.08,0.01
8:27:50 PM,8.99,0.78,-3.14,-0.03,0.02,0.01
8:27:50 PM,9.25,0.76,-2.84,0.16,0.03,0.01
8:27:50 PM,8.93,0.72,-2.73,-0.01,-0.10,0.01
8:27:50 PM,9.04,0.84,-3.09,-0.04,-0.04,0.01
8:27:50 PM,9.11,0.87,-3.10,0.02,-0.01,0.01
8:27:50 PM,9.00,0.76,-2.87,0.00,-0.03,0.01
8:27:50 PM,9.03,0.79,-2.72,0.04,-0.02,0.01
8:27:50 PM,9.11,0.68,-2.68,-0.00,-0.17,0.01
8:27:51 PM,9.13,0.80,-3.09,-0.05,-0.02,0.01
8:27:51 PM,8.99,0.81,-3.22,-0.01,0.03,0.01
8:27:51 PM,8.92,0.88,-2.95,0.01,-0.01,0.01
8:27:51 PM,8.69,0.85,-2.90,-0.01,-0.07,0.01
8:27:51 PM,9.45,0.75,-2.50,0.01,-0.11,0.01
8:27:51 PM,9.33,0.48,-2.57,-0.03,0.04,0.01
8:27:51 PM,9.01,0.64,-3.00,-0.02,0.05,0.01
8:27:51 PM,9.00,0.71,-3.05,0.03,0.05,0.01
8:27:51 PM,8.58,0.85,-3.01,0.12,0.12,0.01
8:27:52 PM,9.16,0.60,-2.34,0.00,-0.03,0.01
8:27:52 PM,8.96,0.70,-2.66,-0.02,-0.05,0.01
8:27:52 PM,9.07,0.65,-2.96,-0.09,-0.07,0.01
8:27:52 PM,8.85,0.80,-3.06,-0.09,-0.09,0.01
8:27:52 PM,8.71,0.87,-3.12,-0.08,-0.09,0.01
8:27:52 PM,8.65,0.72,-2.86,0.05,-0.08,0.01
8:27:52 PM,9.07,0.72,-2.88,-0.09,-0.11,0.01
8:27:52 PM,9.02,0.76,-2.94,-0.07,-0.05,0.01
8:27:52 PM,9.15,0.80,-3.14,-0.04,-0.03,0.01
8:27:53 PM,9.10,0.72,-2.92,-0.07,-0.08,0.01
8:27:53 PM,9.01,0.79,-2.97,-0.08,-0.01,0.01
8:27:53 PM,9.00,0.62,-2.94,-0.06,-0.13,0.01
8:27:53 PM,9.03,0.70,-3.01,-0.02,-0.07,0.01
8:27:53 PM,8.89,0.61,-2.86,-0.05,-0.04,0.01
8:27:53 PM,9.19,0.58,-2.75,-0.01,-0.08,0.01
8:27:53 PM,9.07,0.69,-3.00,0.03,-0.04,0.01
8:27:53 PM,8.95,0.69,-3.06,0.02,0.04,0.01
8:27:53 PM,9.19,0.74,-2.99,0.02,-0.00,0.01
8:27:54 PM,8.64,0.83,-3.25,-0.00,0.04,0.01
8:27:54 PM,8.90,0.77,-3.03,-0.01,0.01,0.01
8:27:54 PM,9.37,0.68,-2.50,0.09,-0.15,0.01
8:27:54 PM,8.70,0.91,-3.51,0.08,0.06,0.01
8:27:54 PM,8.44,0.77,-3.20,-0.03,0.14,0.01
8:27:56 PM,9.07,0.74,-2.93,-0.01,-0.13,0.01
8:27:56 PM,9.19,0.71,-2.93,-0.06,-0.11,0.01
8:27:57 PM,9.08,0.71,-3.07,-0.02,-0.02,0.01
8:27:57 PM,8.76,0.61,-2.74,0.01,-0.14,0.01
8:27:57 PM,9.09,0.65,-3.07,-0.09,-0.02,0.01
8:27:57 PM,8.66,0.67,-3.22,-0.03,-0.08,0.01
8:27:57 PM,9.11,0.65,-3.06,-0.06,-0.10,0.01
8:27:57 PM,8.74,0.69,-3.11,-0.04,-0.06,0.01
8:27:57 PM,9.21,0.67,-2.95,-0.01,-0.02,0.01
8:27:57 PM,9.64,-0.88,-2.93,0.10,-0.02,0.01
8:27:57 PM,8.86,0.66,-2.90,0.01,-0.01,0.01
8:27:57 PM,8.82,0.77,-3.14,-0.02,-0.04,0.01
8:27:57 PM,8.88,0.67,-3.06,-0.03,-0.02,0.01
8:27:57 PM,9.33,0.72,-2.78,0.03,-0.11,0.01
8:27:57 PM,8.91,0.75,-3.08,-0.03,-0.03,0.01
8:27:57 PM,8.71,0.76,-3.00,0.03,-0.02,0.01
8:27:57 PM,8.93,0.67,-3.08,0.05,-0.04,0.01
8:27:58 PM,8.95,0.61,-3.53,0.01,-0.04,0.01
8:27:59 PM,9.16,0.71,-3.39,0.04,0.02,0.01
8:27:59 PM,9.06,0.64,-2.95,-0.01,-0.03,0.01
8:27:59 PM,9.34,0.72,-2.66,0.06,-0.10,0.01
8:27:59 PM,9.20,0.82,-2.65,0.03,0.09,0.01
8:27:59 PM,9.15,0.84,-2.80,0.05,-0.10,0.01
8:27:59 PM,8.99,0.55,-2.56,0.00,0.01,0.01
8:27:59 PM,8.85,0.86,-3.38,-0.01,0.03,0.01
8:27:59 PM,8.78,0.77,-3.18,0.02,-0.05,0.01
8:28:00 PM,9.04,0.80,-3.13,0.04,0.01,0.01
8:28:00 PM,9.07,0.75,-3.04,-0.02,-0.11,0.01
8:28:01 PM,8.78,0.73,-3.04,-0.01,0.02,0.01
8:28:01 PM,9.15,0.75,-3.03,0.04,0.02,0.01
8:28:01 PM,9.19,0.74,-2.77,0.08,-0.06,0.01
8:28:01 PM,9.03,0.59,-2.75,-0.03,-0.07,0.01
8:28:01 PM,9.02,0.66,-2.94,-0.02,-0.04,0.01
8:28:01 PM,9.03,0.73,-3.00,0.01,-0.03,0.01
8:28:01 PM,9.08,0.81,-3.11,0.04,0.02,0.01
8:28:01 PM,9.04,0.80,-2.88,0.09,0.05,0.01
8:28:01 PM,8.89,0.76,-2.80,0.05,0.04,0.01
8:28:01 PM,9.04,0.69,-2.67,0.05,-0.04,0.01
8:28:01 PM,9.38,0.75,-2.93,0.03,-0.01,0.01
8:28:01 PM,8.95,0.76,-2.96,0.03,0.02,0.01
8:28:02 PM,9.11,0.75,-2.99,0.00,-0.05,0.01
8:28:02 PM,9.02,0.77,-3.12,0.01,-0.05,0.01
8:28:02 PM,8.86,0.65,-2.93,0.00,-0.04,0.01
8:28:02 PM,9.17,0.74,-2.95,0.03,0.07,0.01
8:28:02 PM,9.18,0.77,-2.73,0.06,-0.11,0.01
8:28:02 PM,9.03,0.65,-2.86,-0.03,-0.01,0.01
8:28:02 PM,9.05,0.64,-2.97,-0.05,-0.01,0.01
8:28:02 PM,8.84,0.75,-3.38,-0.06,0.01,0.01
8:28:02 PM,8.82,0.84,-3.40,-0.01,0.04,0.01
8:28:03 PM,8.71,0.79,-3.22,-0.04,-0.04,0.01
8:28:03 PM,9.00,0.82,-3.31,-0.07,-0.03,0.01
8:28:03 PM,8.87,0.80,-3.25,0.00,-0.03,0.01
8:28:03 PM,9.16,0.74,-2.85,0.01,-0.13,0.01
8:28:03 PM,9.39,0.71,-2.79,0.02,-0.04,0.01
8:28:03 PM,9.05,0.71,-2.87,0.03,-0.03,0.01
8:28:03 PM,9.16,0.67,-2.76,-0.00,-0.11,0.01
8:28:03 PM,9.02,0.78,-3.13,0.02,0.05,0.01
8:28:03 PM,8.95,0.83,-3.19,0.05,-0.03,0.01
8:28:03 PM,8.76,0.69,-2.87,0.01,-0.00,0.01
8:28:04 PM,9.01,0.68,-2.97,0.00,-0.02,0.01
8:28:04 PM,9.10,0.73,-2.81,-0.00,-0.10,0.01
8:28:04 PM,9.15,0.73,-2.91,0.01,-0.04,0.01
8:28:04 PM,9.33,0.72,-2.85,0.05,-0.01,0.01
8:28:04 PM,9.25,0.71,-2.87,0.02,0.02,0.01
8:28:04 PM,9.17,0.53,-2.76,0.04,-0.04,0.01
8:28:04 PM,9.00,0.76,-3.07,0.01,0.00,0.01
8:28:04 PM,8.88,0.76,-3.12,0.00,-0.04,0.01
8:28:04 PM,8.96,0.68,-3.12,0.02,-0.04,0.01
8:28:05 PM,8.80,0.70,-2.83,-0.02,-0.02,0.01
8:28:05 PM,8.96,0.72,-2.92,0.00,-0.02,0.01
8:28:05 PM,8.88,0.70,-3.09,-0.03,0.02,0.01
8:28:05 PM,8.93,0.73,-3.03,-0.02,-0.13,0.01
8:28:05 PM,9.10,0.62,-2.71,-0.00,-0.15,0.01
8:28:05 PM,9.19,0.67,-2.76,0.00,-0.02,0.01
8:28:05 PM,8.99,0.68,-2.90,0.02,0.02,0.01
8:28:05 PM,8.99,0.62,-3.00,-0.00,-0.02,0.01
8:28:05 PM,8.99,0.61,-2.99,0.01,-0.03,0.01
8:28:05 PM,8.76,0.69,-3.07,0.03,0.02,0.01
8:28:06 PM,9.45,0.67,-2.68,0.11,-0.01,0.01
8:28:06 PM,8.78,0.62,-2.89,0.05,0.02,0.01
8:28:06 PM,8.07,0.97,-3.74,0.00,0.05,0.01
8:28:06 PM,9.36,0.78,-3.33,0.08,-0.01,0.01
8:28:06 PM,8.83,0.66,-2.94,0.06,0.05,0.01
8:28:06 PM,9.12,0.72,-2.92,0.07,0.03,0.01
8:28:06 PM,8.86,0.62,-3.08,0.02,-0.01,0.01
8:28:06 PM,8.85,0.66,-3.09,0.00,-0.02,0.01
8:28:06 PM,9.23,0.68,-2.90,0.04,-0.06,0.01
8:28:07 PM,8.94,0.68,-3.21,-0.01,0.07,0.01
8:28:07 PM,9.20,0.70,-2.87,0.04,-0.11,0.01
8:28:07 PM,8.98,0.58,-2.74,0.00,0.00,0.01
8:28:07 PM,9.32,0.68,-3.07,-0.01,0.02,0.01
8:28:07 PM,9.04,0.64,-3.00,0.05,0.05,0.01
8:28:07 PM,8.87,0.71,-3.08,0.01,0.02,0.01
8:28:07 PM,8.96,0.73,-3.16,-0.00,0.01,0.01
8:28:07 PM,9.02,0.73,-3.13,0.01,0.01,0.01
8:28:07 PM,9.08,0.71,-3.07,0.02,-0.05,0.01
8:28:07 PM,8.85,0.69,-2.96,0.01,0.02,0.01
8:28:08 PM,8.80,0.71,-3.09,-0.01,-0.02,0.01
8:28:08 PM,9.07,0.68,-3.22,-0.03,-0.06,0.01
8:28:08 PM,9.00,0.71,-3.15,-0.01,-0.02,0.01
8:28:08 PM,8.85,0.74,-3.16,0.04,-0.01,0.01
8:28:08 PM,8.82,0.62,-2.97,-0.01,-0.00,0.01
8:28:08 PM,9.30,0.62,-3.09,-0.00,-0.03,0.01
8:28:08 PM,9.08,0.65,-3.21,0.03,0.05,0.01
8:28:08 PM,9.11,0.66,-3.20,-0.01,-0.03,0.01
8:28:08 PM,8.73,0.71,-3.24,-0.05,-0.03,0.01
8:28:09 PM,8.81,0.65,-3.50,0.01,0.04,0.01
8:28:09 PM,9.74,0.67,-2.81,0.18,0.12,0.01
8:28:09 PM,8.54,0.83,-3.01,0.06,0.07,0.01
8:28:09 PM,8.96,0.78,-3.05,0.04,-0.02,0.01
8:28:09 PM,9.03,0.68,-2.74,0.02,-0.01,0.01
8:28:09 PM,8.89,0.70,-3.00,-0.01,-0.04,0.01
8:28:09 PM,9.01,0.72,-3.19,-0.03,-0.05,0.01
8:28:09 PM,8.96,0.61,-3.03,-0.03,0.01,0.01
8:28:09 PM,9.39,0.58,-2.83,0.04,-0.13,0.01
8:28:09 PM,9.09,0.62,-2.92,0.08,0.06,0.01
8:28:10 PM,8.85,0.76,-3.16,0.02,0.03,0.01
8:28:10 PM,9.00,0.80,-3.23,0.02,0.01,0.01
8:28:10 PM,8.91,0.75,-2.97,0.02,-0.03,0.01
8:28:10 PM,9.25,0.67,-2.82,0.05,-0.06,0.01
8:28:10 PM,8.98,0.71,-2.89,0.09,-0.02,0.01
8:28:10 PM,8.98,0.69,-2.94,0.03,0.02,0.01
8:28:10 PM,9.15,0.73,-3.02,0.04,-0.03,0.01
8:28:10 PM,9.04,0.72,-3.00,0.04,0.04,0.01
8:28:10 PM,9.13,0.80,-3.05,0.06,-0.01,0.01
8:28:11 PM,9.10,0.73,-3.16,0.02,0.03,0.01
8:28:11 PM,9.02,0.74,-3.12,0.02,0.02,0.01
8:28:11 PM,8.89,0.74,-3.22,-0.04,0.02,0.01
8:28:11 PM,8.72,0.74,-3.31,0.00,-0.00,0.01
8:28:11 PM,9.08,0.72,-3.22,0.02,0.01,0.01
8:28:11 PM,8.96,0.68,-3.13,0.06,-0.08,0.01
8:28:11 PM,9.20,0.74,-3.15,0.04,0.01,0.01
8:28:11 PM,9.02,0.72,-3.01,0.05,-0.04,0.01
8:28:11 PM,9.31,0.71,-3.02,0.05,0.05,0.01
8:28:12 PM,8.91,0.62,-2.91,-0.01,-0.02,0.01
8:28:12 PM,9.11,0.70,-3.11,-0.01,-0.02,0.01
8:28:12 PM,9.11,0.66,-3.13,-0.00,0.00,0.01
8:28:12 PM,8.93,0.76,-3.16,0.00,-0.10,0.01
8:28:12 PM,8.70,0.69,-3.09,-0.02,-0.08,0.01
8:28:12 PM,9.22,0.62,-3.06,0.01,-0.05,0.01
8:28:12 PM,8.87,0.69,-3.26,-0.01,0.04,0.01
8:28:12 PM,8.94,0.68,-3.21,-0.03,-0.11,0.01
8:28:12 PM,8.84,0.73,-3.24,-0.04,-0.03,0.01
8:28:12 PM,9.07,0.63,-3.13,0.02,-0.01,0.01
8:28:13 PM,8.85,0.70,-3.19,0.03,-0.01,0.01
8:28:13 PM,9.30,0.66,-2.98,0.05,0.01,0.01
8:28:13 PM,9.08,0.60,-2.70,0.05,-0.08,0.01
8:28:13 PM,8.87,0.69,-3.09,0.04,-0.02,0.01
8:28:13 PM,8.99,0.53,-2.73,0.07,-0.04,0.01
8:28:13 PM,9.05,0.69,-2.90,0.05,-0.02,0.01
8:28:13 PM,8.95,0.65,-3.09,0.02,-0.06,0.01
8:28:13 PM,8.73,0.65,-3.26,0.02,-0.03,0.01
8:28:13 PM,9.06,0.62,-3.21,-0.02,0.00,0.01
8:28:14 PM,9.28,0.59,-2.92,-0.01,-0.01,0.01
8:28:14 PM,8.92,0.52,-2.97,0.00,0.02,0.01
8:28:14 PM,8.79,0.67,-3.22,-0.02,0.02,0.01
8:28:14 PM,9.03,0.71,-3.36,-0.01,0.01,0.01
8:28:14 PM,8.92,0.70,-3.26,-0.01,0.02,0.01
8:28:14 PM,9.00,0.65,-3.06,0.04,-0.03,0.01
8:28:14 PM,8.86,0.64,-3.21,0.00,0.02,0.01
8:28:14 PM,9.09,0.68,-3.13,-0.03,-0.03,0.01
8:28:14 PM,8.64,0.65,-3.34,-0.05,-0.02,0.01
8:28:14 PM,8.86,0.69,-3.29,-0.06,-0.09,0.01
8:28:15 PM,9.21,0.56,-3.64,0.01,-0.04,0.01
8:28:15 PM,9.44,0.53,-3.38,0.02,0.10,0.01
8:28:15 PM,9.14,0.67,-3.42,0.01,0.05,0.01
8:28:15 PM,8.75,0.68,-3.31,0.03,0.09,0.01
8:28:15 PM,8.97,0.70,-3.28,-0.01,0.00,0.01
8:28:15 PM,8.77,0.65,-2.95,0.02,-0.06,0.01
8:28:15 PM,8.81,0.75,-3.24,-0.00,0.03,0.01
8:28:15 PM,8.87,0.71,-3.24,-0.00,-0.03,0.01
8:28:15 PM,8.98,0.70,-3.20,0.03,-0.02,0.01
8:28:16 PM,8.78,0.69,-3.10,0.00,-0.01,0.01
8:28:16 PM,8.93,0.68,-3.17,0.01,0.00,0.01
8:28:16 PM,8.97,0.60,-3.22,0.01,-0.06,0.01
8:28:16 PM,8.77,0.65,-3.06,-0.02,-0.05,0.01
8:28:16 PM,8.74,0.70,-3.19,0.00,0.02,0.01
8:28:16 PM,9.33,0.62,-3.20,0.02,-0.02,0.01
8:28:16 PM,8.89,0.70,-3.20,0.02,0.00,0.01
8:28:16 PM,8.93,0.66,-3.08,0.01,-0.05,0.01
8:28:16 PM,9.00,0.62,-3.07,0.01,0.00,0.01
8:28:16 PM,8.94,0.62,-3.18,-0.02,-0.01,0.01
8:28:17 PM,9.06,0.66,-3.15,-0.03,-0.01,0.01
8:28:17 PM,9.01,0.68,-3.20,0.01,-0.01,0.01
8:28:17 PM,8.88,0.72,-3.26,0.02,0.02,0.01
8:28:17 PM,9.19,0.65,-3.11,0.04,-0.12,0.01
8:28:17 PM,8.81,0.62,-3.04,0.02,0.01,0.01
8:28:17 PM,9.14,0.66,-2.95,0.03,0.03,0.01
8:28:17 PM,8.78,0.64,-3.06,-0.03,-0.04,0.01
8:28:17 PM,9.03,0.59,-3.11,-0.01,-0.00,0.01
8:28:17 PM,9.12,0.70,-3.03,-0.01,-0.00,0.01
8:28:18 PM,9.03,0.61,-3.14,-0.01,-0.06,0.01
8:28:18 PM,8.94,0.65,-3.31,-0.00,-0.04,0.01
8:28:18 PM,8.93,0.75,-3.40,0.01,-0.02,0.01
8:28:18 PM,9.02,0.73,-3.37,0.01,-0.05,0.01
8:28:18 PM,8.93,0.72,-3.27,-0.02,-0.04,0.01
8:28:18 PM,9.08,0.67,-3.15,-0.03,-0.01,0.01
8:28:18 PM,8.96,0.64,-3.12,-0.03,-0.08,0.01
8:28:18 PM,9.02,0.65,-3.21,-0.01,0.02,0.01
8:28:18 PM,8.71,0.55,-3.39,0.11,-0.00,0.01
8:28:18 PM,8.99,0.52,-3.04,-0.02,-0.02,0.01
8:28:19 PM,9.02,0.55,-3.26,-0.01,-0.03,0.01
8:28:19 PM,8.89,0.70,-3.45,0.02,-0.02,0.01
8:28:19 PM,8.89,0.62,-3.32,0.06,0.05,0.01
8:28:19 PM,8.75,0.66,-3.15,0.02,-0.06,0.01
8:28:19 PM,8.94,0.64,-3.11,0.03,-0.03,0.01
8:28:19 PM,8.91,0.63,-3.04,0.04,-0.05,0.01
8:28:19 PM,8.83,0.61,-2.82,0.07,0.04,0.01
8:28:19 PM,8.75,0.63,-2.90,0.00,-0.01,0.01
8:28:19 PM,9.04,0.54,-2.98,0.00,-0.04,0.01
8:28:20 PM,9.24,0.55,-3.11,0.01,-0.03,0.01
8:28:20 PM,9.07,0.61,-3.24,-0.01,0.00,0.01
8:28:20 PM,8.99,0.54,-3.26,-0.00,-0.02,0.01
8:28:20 PM,8.92,0.64,-3.36,-0.04,-0.06,0.01
8:28:20 PM,8.75,0.63,-3.54,-0.06,0.03,0.01
8:28:20 PM,9.07,0.63,-3.46,-0.03,-0.05,0.01
8:28:20 PM,8.83,0.61,-3.37,-0.03,-0.03,0.01
8:28:20 PM,8.75,0.69,-3.48,0.01,-0.03,0.01
8:28:20 PM,9.03,0.65,-3.37,0.03,-0.00,0.01
8:28:20 PM,9.01,0.62,-3.00,0.05,-0.08,0.01
8:28:21 PM,9.03,0.61,-2.96,0.05,-0.02,0.01
8:28:21 PM,8.84,0.57,-2.94,0.00,-0.02,0.01
8:28:21 PM,9.04,0.59,-2.95,0.01,-0.02,0.01
8:28:21 PM,8.84,0.64,-3.23,0.01,-0.01,0.01
8:28:21 PM,8.78,0.70,-3.41,0.01,0.02,0.01
8:28:21 PM,9.12,0.61,-3.03,0.09,-0.05,0.01
8:28:21 PM,8.87,0.68,-3.24,0.03,0.06,0.01
8:28:21 PM,8.83,0.66,-3.18,0.01,-0.02,0.01
8:28:21 PM,9.10,0.66,-3.22,0.04,0.03,0.01
8:28:22 PM,8.84,0.61,-3.03,-0.01,-0.02,0.01
8:28:22 PM,8.83,0.59,-3.19,-0.03,-0.07,0.01
8:28:22 PM,9.13,0.56,-3.10,0.01,-0.04,0.01
8:28:22 PM,8.86,0.60,-3.19,-0.03,-0.01,0.01
8:28:22 PM,8.92,0.60,-3.30,-0.07,0.02,0.01
8:28:22 PM,9.13,0.52,-3.15,0.00,-0.06,0.01
8:28:22 PM,8.94,0.57,-3.14,-0.02,0.02,0.01
8:28:22 PM,8.89,0.64,-3.31,0.01,0.08,0.01
8:28:22 PM,9.11,0.63,-3.15,0.02,-0.01,0.01
8:28:22 PM,9.01,0.58,-2.92,0.03,-0.11,0.01
8:28:23 PM,9.12,0.55,-3.08,0.01,-0.00,0.01
8:28:23 PM,9.05,0.58,-3.13,0.00,-0.04,0.01
8:28:23 PM,9.05,0.60,-3.23,0.03,-0.00,0.01
8:28:23 PM,8.88,0.62,-3.13,0.04,-0.04,0.01
8:28:23 PM,9.72,0.75,-3.83,0.30,0.32,0.01
8:28:23 PM,8.98,0.74,-3.09,0.05,-0.02,0.01
8:28:23 PM,9.07,0.67,-3.10,0.03,0.00,0.01
8:28:23 PM,9.01,0.63,-3.05,0.01,0.01,0.01
8:28:23 PM,9.03,0.59,-3.14,-0.02,0.02,0.01
8:28:24 PM,8.85,0.67,-3.25,-0.00,-0.03,0.01
8:28:24 PM,8.98,0.64,-3.30,-0.00,0.02,0.01
8:28:24 PM,8.96,0.64,-3.28,-0.01,-0.02,0.01
8:28:24 PM,9.19,0.64,-3.20,0.05,0.03,0.01
8:28:24 PM,8.81,0.70,-3.12,0.02,-0.00,0.01
8:28:24 PM,8.87,0.63,-3.11,0.01,0.03,0.01
8:28:24 PM,8.96,0.56,-2.93,0.00,-0.09,0.01
8:28:24 PM,9.08,0.55,-2.94,-0.00,-0.06,0.01
8:28:24 PM,8.99,0.59,-3.13,-0.01,-0.02,0.01
8:28:25 PM,9.15,0.61,-2.96,0.02,0.00,0.01
8:28:25 PM,9.01,0.63,-3.15,-0.00,-0.01,0.01
8:28:25 PM,8.83,0.66,-3.24,-0.01,-0.01,0.01
8:28:25 PM,8.92,0.71,-3.55,0.02,0.05,0.01
8:28:25 PM,8.97,0.58,-3.19,0.04,-0.03,0.01
8:28:25 PM,8.61,0.67,-3.20,0.02,0.03,0.01
8:28:25 PM,9.18,0.67,-3.15,0.03,-0.03,0.01
8:28:25 PM,9.24,0.62,-3.02,0.04,0.04,0.01
8:28:25 PM,9.00,0.69,-3.07,0.01,0.00,0.01
8:28:25 PM,8.93,0.62,-3.19,-0.02,-0.02,0.01
8:28:26 PM,8.81,0.65,-3.30,-0.02,-0.03,0.01
8:28:26 PM,9.05,0.64,-3.38,-0.00,-0.04,0.01
8:28:26 PM,8.88,0.66,-3.34,0.01,-0.05,0.01
8:28:26 PM,8.93,0.67,-3.28,0.02,-0.04,0.01
8:28:26 PM,8.90,0.68,-3.16,0.04,-0.02,0.01
8:28:26 PM,9.17,0.58,-2.99,0.01,-0.05,0.01
8:28:26 PM,8.84,0.66,-3.12,-0.03,-0.02,0.01
8:28:26 PM,8.99,0.51,-3.00,-0.01,-0.06,0.01
8:28:26 PM,8.99,0.65,-3.16,0.01,-0.02,0.01
8:28:27 PM,9.04,0.70,-3.21,0.06,0.02,0.01
8:28:27 PM,8.87,0.62,-3.03,0.03,-0.02,0.01
8:28:27 PM,9.11,0.52,-2.72,-0.09,-0.03,0.01
8:28:27 PM,9.34,0.50,-2.89,0.04,0.02,0.01
8:28:27 PM,8.60,0.64,-3.51,0.00,0.01,0.01
8:28:27 PM,8.71,0.66,-3.55,0.00,0.01,0.01
8:28:27 PM,9.00,0.67,-3.48,0.02,0.03,0.01
8:28:27 PM,8.95,0.60,-3.01,0.01,-0.10,0.01
8:28:27 PM,9.20,0.61,-3.04,0.03,0.02,0.01
8:28:27 PM,9.01,0.61,-2.92,0.04,-0.01,0.01
8:28:28 PM,8.96,0.58,-2.90,0.01,-0.02,0.01
8:28:28 PM,9.00,0.70,-3.05,-0.01,-0.05,0.01
8:28:28 PM,8.82,0.55,-3.13,0.00,0.00,0.01
8:28:28 PM,9.22,0.66,-3.25,0.01,-0.03,0.01
8:28:28 PM,8.81,0.67,-3.40,-0.02,0.03,0.01
8:28:28 PM,9.16,0.62,-3.23,0.02,0.04,0.01
8:28:28 PM,8.99,0.54,-3.03,0.05,0.02,0.01
8:28:28 PM,8.87,0.64,-3.04,0.05,0.00,0.01
8:28:28 PM,8.85,0.61,-2.98,0.02,-0.05,0.01
8:28:29 PM,8.97,0.58,-2.94,0.03,-0.02,0.01
8:28:29 PM,8.99,0.58,-3.11,0.01,-0.01,0.01
8:28:29 PM,8.79,0.60,-3.06,-0.01,0.00,0.01
8:28:29 PM,8.93,0.70,-3.20,0.01,-0.01,0.01
8:28:29 PM,8.91,0.65,-3.16,0.03,-0.07,0.01
8:28:29 PM,9.11,0.66,-3.17,0.05,0.03,0.01
8:28:29 PM,9.03,0.65,-3.00,0.08,0.04,0.01
8:28:29 PM,8.96,0.61,-2.96,-0.00,0.00,0.01
8:28:29 PM,8.87,0.62,-3.21,-0.01,0.02,0.01
8:28:29 PM,8.92,0.64,-3.19,-0.03,-0.05,0.01
8:28:30 PM,8.83,0.55,-3.19,-0.01,-0.04,0.01
8:28:30 PM,9.00,0.57,-3.17,0.00,-0.01,0.01
8:28:30 PM,8.94,0.70,-3.19,0.01,-0.01,0.01
8:28:30 PM,9.04,0.56,-3.12,0.01,-0.02,0.01
8:28:30 PM,9.16,0.66,-3.12,0.06,0.01,0.01
8:28:30 PM,8.95,0.73,-3.33,0.03,-0.03,0.01
8:28:30 PM,8.86,0.51,-2.90,-0.00,-0.07,0.01
8:28:30 PM,8.80,0.68,-3.33,-0.01,0.01,0.01
8:28:30 PM,9.12,0.68,-3.41,-0.01,-0.09,0.01
8:28:31 PM,8.71,0.64,-3.36,0.00,-0.07,0.01
8:28:31 PM,8.85,0.63,-3.27,0.01,-0.08,0.01
8:28:31 PM,9.10,0.91,-3.93,0.18,0.18,0.01
8:28:31 PM,9.04,0.68,-3.27,0.02,-0.05,0.01
8:28:31 PM,8.86,0.68,-3.28,-0.04,-0.03,0.01
8:28:31 PM,8.93,0.64,-3.33,0.01,0.05,0.01
8:28:31 PM,9.10,0.65,-3.11,0.02,-0.04,0.01
8:28:31 PM,9.16,0.72,-3.29,0.02,0.10,0.01
8:28:31 PM,8.77,0.69,-3.28,-0.02,0.01,0.01
8:28:31 PM,9.15,0.62,-3.23,-0.01,-0.02,0.01
8:28:32 PM,8.79,0.52,-3.23,-0.03,-0.06,0.01
8:28:32 PM,9.14,0.58,-3.24,0.00,-0.05,0.01
8:28:32 PM,8.82,0.57,-3.51,-0.06,-0.00,0.01
8:28:32 PM,8.83,0.67,-3.41,-0.02,-0.05,0.01
8:28:32 PM,8.86,0.64,-3.52,-0.01,-0.01,0.01
8:28:32 PM,8.78,0.62,-3.56,-0.05,-0.03,0.01
8:28:32 PM,9.01,0.62,-3.35,-0.05,-0.03,0.01
8:28:32 PM,9.13,0.64,-3.33,0.00,-0.01,0.01
8:28:32 PM,9.17,0.67,-3.17,0.09,-0.01,0.01
8:28:33 PM,8.82,0.71,-3.14,0.08,0.04,0.01
8:28:33 PM,8.97,0.69,-3.21,0.06,0.02,0.01
8:28:33 PM,8.99,0.51,-3.05,0.02,0.01,0.01
8:28:33 PM,9.12,0.51,-2.87,0.00,-0.03,0.01
8:28:33 PM,9.28,0.62,-3.23,0.02,0.01,0.01
8:28:33 PM,8.86,0.65,-3.53,-0.01,0.02,0.01
8:28:33 PM,8.74,0.71,-3.53,-0.04,0.04,0.01
8:28:33 PM,8.65,0.71,-3.56,-0.01,-0.04,0.01
8:28:34 PM,9.09,0.60,-3.16,0.01,-0.08,0.01
8:28:34 PM,9.27,0.57,-3.00,0.05,0.02,0.01
8:28:34 PM,9.14,0.59,-2.96,0.04,0.01,0.01
8:28:34 PM,8.99,0.56,-3.02,0.00,-0.05,0.01
8:28:34 PM,8.68,0.61,-3.34,-0.03,0.01,0.01
8:28:34 PM,9.09,0.52,-3.17,-0.02,-0.04,0.01
8:28:34 PM,9.13,0.61,-3.39,0.03,0.01,0.01
8:28:34 PM,9.00,0.63,-3.41,0.03,-0.08,0.01
8:28:34 PM,9.03,0.55,-3.07,0.03,0.02,0.01
8:28:34 PM,9.17,0.59,-3.08,0.04,-0.02,0.01
8:28:35 PM,9.13,0.49,-2.85,0.04,-0.00,0.01
8:28:35 PM,8.93,0.56,-3.06,0.04,-0.03,0.01
8:28:35 PM,8.94,0.62,-3.11,0.00,-0.04,0.01
8:28:35 PM,8.96,0.65,-3.28,-0.00,0.02,0.01
8:28:35 PM,9.08,0.58,-3.30,-0.04,-0.04,0.01
8:28:35 PM,8.94,0.65,-3.36,0.00,-0.02,0.01
8:28:35 PM,8.91,0.59,-3.29,0.02,-0.03,0.01
8:28:35 PM,8.71,0.60,-3.35,0.00,-0.01,0.01
8:28:35 PM,8.82,0.59,-3.20,0.04,-0.05,0.01
8:28:35 PM,9.02,0.59,-3.12,0.02,-0.01,0.01
8:28:36 PM,9.14,0.58,-2.96,0.11,-0.01,0.01
8:28:36 PM,9.33,0.59,-2.89,0.03,-0.04,0.01
8:28:36 PM,9.06,0.53,-3.09,0.02,0.02,0.01
8:28:36 PM,8.78,0.64,-3.40,-0.01,0.03,0.01
8:28:36 PM,8.77,0.63,-3.58,-0.02,0.02,0.01
8:28:36 PM,8.96,0.61,-3.47,0.02,-0.01,0.01
8:28:36 PM,8.83,0.59,-3.20,0.03,-0.06,0.01
8:28:36 PM,8.99,0.59,-3.02,0.03,-0.07,0.01
8:28:36 PM,9.05,0.51,-3.01,0.01,-0.02,0.01
8:28:36 PM,9.29,0.55,-3.06,0.04,0.00,0.01
8:28:37 PM,8.98,0.62,-3.19,-0.00,0.02,0.01
8:28:37 PM,8.86,0.51,-3.24,-0.07,-0.04,0.01
8:28:37 PM,8.89,0.64,-3.76,-0.10,-0.00,0.01
8:28:37 PM,8.69,0.67,-3.98,-0.07,0.02,0.01
8:28:37 PM,8.81,0.70,-3.87,-0.02,-0.08,0.01
8:28:37 PM,9.02,0.68,-3.52,0.04,-0.03,0.01
8:28:37 PM,8.72,0.74,-3.56,0.06,0.03,0.01
8:28:37 PM,8.88,0.58,-3.44,0.03,-0.04,0.01
8:28:37 PM,9.00,0.56,-3.05,-0.01,-0.06,0.01
8:28:37 PM,9.14,0.57,-3.02,0.01,-0.02,0.01
8:28:38 PM,8.83,0.64,-3.23,-0.01,0.03,0.01
8:28:38 PM,9.07,0.52,-3.08,-0.02,-0.06,0.01
8:28:38 PM,9.00,0.60,-3.29,0.02,-0.00,0.01
8:28:38 PM,8.94,0.69,-3.32,0.01,-0.02,0.01
8:28:38 PM,8.94,0.59,-3.25,-0.00,-0.07,0.01
8:28:38 PM,8.97,0.49,-3.17,-0.03,-0.04,0.01
8:28:38 PM,8.97,0.62,-3.52,-0.08,0.03,0.01
8:28:38 PM,8.77,0.68,-3.58,-0.04,-0.02,0.01
8:28:38 PM,9.05,0.59,-3.27,-0.01,-0.02,0.01
8:28:39 PM,9.19,0.53,-3.05,0.07,-0.05,0.01
8:28:39 PM,8.95,0.53,-2.97,0.08,0.02,0.01
8:28:39 PM,8.83,0.71,-3.39,0.06,0.02,0.01
8:28:39 PM,8.66,0.60,-3.26,0.03,-0.01,0.01
8:28:39 PM,8.77,0.58,-3.19,0.00,0.02,0.01
8:28:39 PM,9.47,0.56,-2.75,0.05,-0.08,0.01
8:28:39 PM,8.95,0.64,-3.17,0.12,0.02,0.01
8:28:39 PM,8.88,0.60,-3.39,-0.06,0.05,0.01
8:28:39 PM,8.90,0.64,-3.54,-0.01,0.00,0.01
8:28:40 PM,8.63,0.62,-3.62,-0.03,0.01,0.01
8:28:40 PM,9.20,0.51,-3.38,0.03,0.00,0.01
8:28:40 PM,9.20,0.59,-3.32,0.04,-0.04,0.01
8:28:40 PM,9.28,0.48,-2.88,0.05,-0.09,0.01
8:28:40 PM,8.91,0.50,-2.96,0.02,-0.01,0.01
8:28:40 PM,8.94,0.56,-3.10,0.01,-0.05,0.01
8:28:40 PM,8.87,0.66,-3.13,-0.01,0.04,0.01
8:28:40 PM,8.80,0.56,-3.30,-0.04,0.01,0.01
8:28:40 PM,9.00,0.54,-3.35,-0.03,-0.04,0.01
8:28:40 PM,8.80,0.54,-3.42,0.00,-0.03,0.01
8:28:41 PM,8.82,0.64,-3.50,0.05,0.00,0.01
8:28:41 PM,8.89,0.66,-3.34,0.03,-0.05,0.01
8:28:41 PM,8.83,0.59,-3.26,0.04,-0.07,0.01
8:28:41 PM,8.91,0.54,-3.19,-0.00,-0.00,0.01
8:28:41 PM,9.25,0.62,-3.13,0.00,-0.05,0.01
8:28:41 PM,8.74,0.64,-3.24,-0.01,-0.03,0.01
8:28:41 PM,9.08,0.59,-3.30,-0.01,-0.04,0.01
8:28:41 PM,8.89,0.61,-3.57,0.02,0.02,0.01
8:28:41 PM,8.87,0.63,-3.62,0.01,-0.01,0.01
8:28:42 PM,8.77,0.64,-3.66,0.02,-0.02,0.01
8:28:42 PM,8.84,0.59,-3.29,0.01,-0.13,0.01
8:28:42 PM,9.06,0.60,-3.32,-0.03,-0.11,0.01
8:28:42 PM,8.89,0.60,-3.42,-0.03,-0.05,0.01
8:28:42 PM,9.11,0.51,-3.30,0.03,-0.02,0.01
8:28:42 PM,8.89,0.64,-3.56,0.02,-0.01,0.01
8:28:42 PM,8.75,0.65,-3.59,0.01,0.00,0.01
8:28:42 PM,8.82,0.62,-3.30,0.03,-0.04,0.01
8:28:42 PM,9.05,0.51,-3.10,0.03,-0.06,0.01
8:28:42 PM,8.92,0.65,-3.21,0.05,-0.02,0.01
8:28:43 PM,9.00,0.59,-3.17,0.04,-0.01,0.01
8:28:43 PM,9.06,0.55,-2.96,0.10,0.03,0.01
8:28:43 PM,8.90,0.60,-2.79,0.02,-0.07,0.01
8:28:43 PM,9.14,0.59,-3.22,-0.03,-0.04,0.01
8:28:43 PM,8.82,0.63,-3.71,-0.08,0.04,0.01
8:28:43 PM,8.78,0.67,-3.69,-0.02,-0.05,0.01
8:28:43 PM,8.88,0.62,-3.47,0.04,-0.06,0.01
8:28:43 PM,9.02,0.54,-3.14,0.04,-0.02,0.01
8:28:43 PM,9.03,0.44,-2.91,0.05,-0.01,0.01
8:28:44 PM,8.98,0.58,-3.07,0.06,0.00,0.01
8:28:44 PM,9.00,0.62,-3.13,0.03,0.03,0.01
8:28:44 PM,9.17,0.59,-3.14,0.02,-0.03,0.01
8:28:44 PM,9.00,0.55,-3.09,-0.01,-0.02,0.01
8:28:44 PM,9.11,0.50,-3.06,0.02,-0.01,0.01
8:28:44 PM,9.15,0.50,-3.22,0.01,-0.01,0.01
8:28:44 PM,8.85,0.49,-3.22,-0.06,-0.02,0.01
8:28:44 PM,9.07,0.62,-3.74,-0.06,0.04,0.01
8:28:44 PM,8.54,0.64,-3.89,0.02,-0.07,0.01
8:28:44 PM,9.06,0.63,-3.58,0.07,-0.06,0.01
8:28:45 PM,9.00,0.58,-3.03,0.11,-0.03,0.01
8:28:45 PM,9.22,0.57,-2.89,0.05,-0.01,0.01
8:28:45 PM,9.12,0.52,-3.01,-0.01,-0.06,0.01
8:28:45 PM,8.78,0.59,-3.49,-0.06,0.04,0.01
8:28:45 PM,8.77,0.65,-3.68,-0.01,-0.03,0.01
8:28:45 PM,8.69,0.62,-3.84,-0.02,0.01,0.01
8:28:45 PM,9.28,0.49,-3.46,0.02,-0.07,0.01
8:28:45 PM,9.24,0.52,-3.38,-0.00,0.01,0.01
8:28:45 PM,9.15,0.58,-3.39,0.06,0.04,0.01
8:28:46 PM,8.71,0.64,-3.64,-0.00,0.03,0.01
8:28:46 PM,8.90,0.64,-3.48,0.04,-0.07,0.01
8:28:46 PM,9.08,0.59,-3.38,0.08,0.00,0.01
8:28:46 PM,8.66,0.60,-3.38,-0.04,-0.01,0.01
8:28:46 PM,8.99,0.49,-3.14,-0.01,-0.11,0.01
8:28:46 PM,9.04,0.65,-3.52,0.01,0.04,0.01
8:28:46 PM,8.80,0.66,-3.57,0.00,-0.02,0.01
8:28:46 PM,8.90,0.64,-3.42,0.02,-0.05,0.01
8:28:46 PM,8.71,0.57,-3.44,-0.00,-0.07,0.01
8:28:46 PM,9.12,0.55,-3.36,0.01,-0.05,0.01
8:28:47 PM,8.79,0.52,-3.53,-0.03,-0.01,0.01
8:28:47 PM,9.02,0.51,-3.46,0.02,0.01,0.01
8:28:47 PM,9.00,0.55,-3.21,0.05,-0.03,0.01
8:28:47 PM,9.18,0.53,-2.98,0.08,-0.07,0.01
8:28:47 PM,9.08,0.39,-3.00,0.02,-0.01,0.01
8:28:47 PM,9.02,0.57,-3.43,0.03,0.00,0.01
8:28:47 PM,8.96,0.48,-3.44,-0.06,-0.03,0.01
8:28:47 PM,8.74,0.52,-3.61,-0.06,-0.04,0.01
8:28:47 PM,8.93,0.47,-3.32,-0.01,-0.02,0.01
8:28:48 PM,8.88,0.61,-3.58,-0.01,0.00,0.01
8:28:48 PM,9.01,0.45,-3.19,0.02,-0.07,0.01
8:28:48 PM,8.85,0.52,-3.41,0.01,-0.01,0.01
8:28:48 PM,8.91,0.59,-3.53,-0.02,0.02,0.01
8:28:48 PM,8.80,0.64,-3.55,0.02,0.02,0.01
8:28:48 PM,8.79,0.59,-3.44,0.01,-0.04,0.01
8:28:48 PM,8.85,0.62,-3.33,0.07,0.00,0.01
8:28:48 PM,8.89,0.54,-3.04,0.02,-0.05,0.01
8:28:48 PM,8.94,0.61,-3.52,-0.03,0.03,0.01
8:28:49 PM,8.92,0.57,-3.55,-0.07,-0.02,0.01
8:28:49 PM,8.81,0.60,-3.64,-0.01,-0.02,0.01
8:28:49 PM,8.65,0.65,-3.73,-0.01,0.01,0.01
8:28:49 PM,8.89,0.63,-3.64,-0.04,-0.05,0.01
8:28:49 PM,8.88,0.61,-3.65,-0.02,-0.04,0.01
8:28:49 PM,8.86,0.60,-3.46,-0.03,-0.06,0.01
8:28:49 PM,8.81,0.61,-3.58,-0.04,-0.01,0.01
8:28:49 PM,8.88,0.64,-3.63,-0.00,0.00,0.01
8:28:49 PM,8.77,0.66,-3.66,0.05,-0.03,0.01
8:28:49 PM,8.99,0.50,-3.23,0.02,-0.02,0.01
8:28:50 PM,9.20,0.53,-2.97,0.08,-0.08,0.01
8:28:50 PM,8.97,0.56,-3.13,0.03,0.03,0.01
8:28:50 PM,9.17,0.57,-2.99,0.05,-0.02,0.01
8:28:50 PM,8.88,0.53,-3.04,-0.02,-0.03,0.01
8:28:50 PM,9.10,0.53,-3.06,0.03,0.01,0.01
8:28:50 PM,8.89,0.55,-3.28,-0.04,-0.09,0.01
8:28:50 PM,8.89,0.64,-3.59,0.03,0.01,0.01
8:28:50 PM,8.94,0.62,-3.50,0.06,-0.03,0.01
8:28:50 PM,8.93,0.64,-3.30,0.09,-0.08,0.01
8:28:51 PM,8.87,0.61,-3.28,0.04,-0.11,0.01
8:28:51 PM,9.12,0.51,-3.00,0.06,-0.05,0.01
8:28:51 PM,9.01,0.53,-3.17,0.08,0.09,0.01
8:28:51 PM,8.83,0.54,-3.19,-0.03,0.01,0.01
8:28:51 PM,8.86,0.55,-3.14,-0.01,-0.10,0.01
8:28:51 PM,8.89,0.45,-3.25,-0.04,-0.01,0.01
8:28:51 PM,9.03,0.52,-3.37,-0.04,-0.03,0.01
8:28:51 PM,8.96,0.52,-3.55,-0.01,0.02,0.01
8:28:51 PM,8.82,0.53,-3.58,-0.06,-0.01,0.01
8:28:51 PM,9.02,0.58,-3.63,0.02,-0.01,0.01
8:28:52 PM,8.88,0.39,-3.22,0.00,-0.02,0.01
8:28:52 PM,8.79,0.51,-3.30,0.02,0.08,0.01
8:28:52 PM,8.92,0.54,-3.19,0.05,0.00,0.01
8:28:52 PM,8.89,0.42,-2.91,-0.02,-0.04,0.01
8:28:52 PM,8.97,0.58,-3.34,-0.00,0.07,0.01
8:28:52 PM,8.85,0.46,-3.24,-0.03,0.01,0.01
8:28:52 PM,9.00,0.60,-3.52,0.00,-0.02,0.01
8:28:52 PM,8.73,0.62,-3.69,-0.02,-0.01,0.01
8:28:52 PM,8.89,0.52,-3.39,0.04,-0.01,0.01
8:28:53 PM,8.94,0.70,-3.52,0.09,0.01,0.01
8:28:53 PM,8.91,0.67,-3.26,0.06,0.00,0.01
8:28:53 PM,8.86,0.68,-3.39,0.08,0.02,0.01
8:28:53 PM,8.83,0.66,-3.35,0.07,-0.06,0.01
8:28:53 PM,8.82,0.69,-3.58,0.02,0.01,0.01
8:28:53 PM,8.95,0.56,-3.29,0.03,-0.08,0.01
8:28:54 PM,8.97,0.46,-3.09,-0.01,-0.02,0.01
8:28:54 PM,9.16,0.62,-3.54,-0.04,0.03,0.01
8:28:54 PM,9.16,0.51,-3.40,0.02,-0.01,0.01
8:28:54 PM,9.33,0.51,-3.18,0.08,-0.05,0.01
8:28:54 PM,8.96,0.59,-3.43,0.01,0.07,0.01
8:28:54 PM,8.95,0.36,-3.16,-0.05,-0.00,0.01
8:28:54 PM,8.89,0.54,-3.46,-0.07,-0.04,0.01
8:28:54 PM,8.86,0.55,-3.67,-0.01,-0.01,0.01
8:28:54 PM,8.99,0.53,-3.39,0.00,-0.07,0.01
8:28:54 PM,8.92,0.61,-3.54,-0.04,0.01,0.01
8:28:54 PM,8.80,0.58,-3.56,-0.05,-0.07,0.01
8:28:54 PM,8.98,0.45,-3.16,0.04,-0.04,0.01
8:28:55 PM,8.99,0.48,-3.28,0.02,-0.03,0.01
8:28:55 PM,9.11,0.52,-3.23,0.04,0.01,0.01
8:28:55 PM,8.85,0.47,-2.89,-0.05,-0.01,0.01
8:28:55 PM,9.16,0.52,-3.19,0.01,-0.02,0.01
8:28:55 PM,8.99,0.49,-3.34,-0.05,-0.02,0.01
8:28:55 PM,8.93,0.50,-3.36,-0.04,-0.02,0.01
8:28:55 PM,9.15,0.62,-3.64,0.05,0.01,0.01
8:28:55 PM,8.77,0.64,-3.58,0.04,-0.04,0.01
8:28:55 PM,8.78,0.62,-3.58,0.04,0.02,0.01
8:28:56 PM,8.91,0.52,-3.16,0.06,-0.04,0.01
8:28:56 PM,8.88,0.51,-3.12,0.04,0.01,0.01
8:28:56 PM,9.31,0.56,-3.08,0.08,0.06,0.01
8:28:56 PM,8.98,0.57,-3.17,0.01,-0.00,0.01
8:28:56 PM,8.99,0.52,-3.27,0.01,-0.03,0.01
8:28:56 PM,9.15,0.45,-3.15,0.04,-0.04,0.01
8:28:56 PM,9.01,0.50,-3.17,0.03,-0.00,0.01
8:28:56 PM,8.88,0.47,-3.25,-0.03,-0.00,0.01
8:28:56 PM,9.11,0.59,-3.52,0.03,-0.03,0.01
8:28:56 PM,8.85,0.60,-3.63,0.02,0.02,0.01
8:28:57 PM,9.08,0.60,-3.67,0.02,-0.00,0.01
8:28:57 PM,8.58,0.65,-3.73,-0.03,0.00,0.01
8:28:57 PM,8.89,0.49,-3.33,-0.01,-0.06,0.01
8:28:57 PM,8.92,0.49,-3.38,0.01,0.06,0.01
8:28:57 PM,9.06,0.52,-3.32,-0.02,0.02,0.01
8:28:57 PM,8.76,0.66,-3.62,-0.03,-0.04,0.01
8:28:57 PM,9.16,0.61,-3.56,-0.01,0.00,0.01
8:28:57 PM,8.90,0.61,-3.72,-0.04,0.04,0.01
8:28:57 PM,8.98,0.62,-3.72,-0.01,-0.03,0.01
8:28:58 PM,8.88,0.53,-3.43,0.01,-0.06,0.01
8:28:58 PM,9.03,0.48,-3.40,-0.03,0.00,0.01
8:28:58 PM,8.75,0.57,-3.70,-0.04,-0.03,0.01
8:28:58 PM,8.90,0.56,-3.68,0.00,0.03,0.01
8:28:58 PM,8.95,0.61,-3.45,0.05,-0.02,0.01
8:28:58 PM,8.79,0.60,-3.46,0.08,0.00,0.01
8:28:58 PM,9.02,0.44,-3.16,-0.06,-0.10,0.01
8:28:58 PM,9.18,0.46,-3.13,-0.03,-0.04,0.01
8:28:58 PM,8.84,0.60,-3.59,-0.01,0.04,0.01
8:28:59 PM,8.83,0.58,-3.58,-0.04,0.00,0.01
8:28:59 PM,8.69,0.53,-3.62,-0.05,-0.03,0.01
8:28:59 PM,9.04,0.50,-3.58,-0.03,0.02,0.01
8:28:59 PM,8.94,0.42,-3.48,-0.03,0.00,0.01
8:28:59 PM,8.87,0.44,-3.46,-0.07,-0.03,0.01
8:28:59 PM,8.80,0.58,-3.79,-0.04,0.05,0.01
8:28:59 PM,8.86,0.66,-3.85,0.02,0.05,0.01
8:28:59 PM,8.87,0.55,-3.31,0.08,-0.06,0.01
8:28:59 PM,9.17,0.53,-3.07,0.07,-0.03,0.01
8:28:59 PM,9.32,0.45,-2.97,0.04,0.03,0.01
8:29:00 PM,8.90,0.44,-3.04,-0.01,-0.04,0.01
8:29:00 PM,9.09,0.36,-2.92,0.00,-0.03,0.01
8:29:00 PM,9.03,0.50,-3.32,-0.02,0.01,0.01
8:29:00 PM,8.62,0.57,-3.65,-0.05,0.00,0.01
8:29:00 PM,8.95,0.40,-3.41,-0.01,-0.04,0.01
8:29:00 PM,8.86,0.47,-3.50,0.02,0.03,0.01
8:29:00 PM,8.79,0.55,-3.54,-0.01,0.02,0.01
8:29:00 PM,8.99,0.50,-3.31,0.01,-0.06,0.01
8:29:00 PM,9.08,0.54,-3.40,0.02,-0.01,0.01
8:29:01 PM,9.10,0.50,-3.12,0.07,-0.04,0.01
8:29:01 PM,9.12,0.53,-3.10,-0.01,-0.02,0.01
8:29:01 PM,9.11,0.56,-3.28,0.05,0.07,0.01
8:29:01 PM,9.14,0.53,-3.19,0.04,-0.02,0.01
8:29:01 PM,8.81,0.45,-3.33,-0.04,-0.08,0.01
8:29:01 PM,8.81,0.55,-3.56,-0.01,0.01,0.01
8:29:01 PM,8.94,0.48,-3.53,0.02,0.03,0.01
8:29:01 PM,9.17,0.43,-3.15,-0.01,0.02,0.01
8:29:01 PM,9.07,0.54,-3.34,-0.04,-0.02,0.01
8:29:01 PM,8.67,0.51,-3.39,-0.02,-0.07,0.01
8:29:02 PM,9.17,0.54,-3.24,0.04,-0.01,0.01
8:29:02 PM,8.75,0.60,-3.44,0.04,0.02,0.01
8:29:02 PM,9.03,0.62,-3.52,0.06,0.04,0.01
8:29:02 PM,8.88,0.61,-3.38,-0.01,-0.03,0.01
8:29:02 PM,8.92,0.50,-3.50,-0.01,-0.01,0.01
8:29:02 PM,8.99,0.52,-3.34,0.02,-0.03,0.01
8:29:02 PM,8.98,0.48,-3.23,-0.01,-0.02,0.01
8:29:02 PM,9.15,0.51,-3.37,0.00,-0.07,0.01
8:29:02 PM,8.92,0.43,-3.30,0.04,-0.00,0.01
8:29:03 PM,9.12,0.52,-3.26,0.02,-0.03,0.01
8:29:03 PM,8.80,0.45,-3.26,-0.03,0.00,0.01
8:29:03 PM,8.95,0.44,-3.38,-0.05,-0.05,0.01
8:29:03 PM,8.80,0.46,-3.47,0.01,-0.03,0.01
8:29:03 PM,8.58,0.57,-3.67,-0.03,-0.02,0.01
8:29:03 PM,8.63,0.60,-3.81,-0.02,-0.01,0.01
8:29:03 PM,8.89,0.65,-3.84,0.05,0.01,0.01
8:29:03 PM,9.03,0.55,-3.30,0.06,-0.00,0.01
8:29:03 PM,8.14,0.56,-3.13,0.05,-0.13,0.02
8:29:03 PM,9.42,0.32,-2.78,-0.00,-0.00,0.01
8:29:04 PM,8.94,0.42,-3.36,-0.06,0.02,0.01
8:29:04 PM,8.86,0.45,-3.51,-0.03,-0.05,0.01
8:29:04 PM,8.86,0.49,-3.75,-0.02,0.01,0.01
8:29:04 PM,8.83,0.49,-3.68,-0.03,-0.02,0.01
8:29:04 PM,8.93,0.56,-3.66,0.04,-0.02,0.01
8:29:04 PM,8.90,0.59,-3.76,0.04,0.04,0.01
8:29:04 PM,9.06,0.49,-3.34,0.02,-0.07,0.01
8:29:04 PM,8.96,0.46,-3.23,0.06,0.01,0.01
8:29:04 PM,8.99,0.57,-3.44,0.06,0.10,0.01
8:29:05 PM,9.03,0.64,-3.41,-0.01,-0.18,0.01
8:29:05 PM,8.81,0.58,-3.56,0.03,0.07,0.01
8:29:05 PM,9.11,0.62,-3.40,0.04,-0.01,0.01
8:29:05 PM,8.93,0.58,-3.30,0.01,-0.06,0.01
8:29:05 PM,8.90,0.54,-3.52,0.00,0.00,0.01
8:29:05 PM,9.04,0.52,-3.21,0.02,-0.06,0.01
8:29:05 PM,8.84,0.54,-3.30,-0.02,0.00,0.01
8:29:05 PM,8.94,0.57,-3.43,-0.01,-0.02,0.01
8:29:05 PM,8.87,0.57,-3.59,0.01,-0.01,0.01
8:29:05 PM,8.62,0.59,-3.28,0.05,-0.08,0.01
8:29:06 PM,9.27,0.52,-3.09,0.07,-0.06,0.01
8:29:06 PM,9.07,0.49,-2.99,0.09,0.01,0.01
8:29:06 PM,9.05,0.54,-3.17,0.02,0.01,0.01
8:29:06 PM,8.95,0.48,-3.14,-0.01,-0.03,0.01
8:29:06 PM,9.10,0.50,-3.31,0.00,0.03,0.01
8:29:06 PM,8.77,0.48,-3.36,0.01,-0.05,0.01
8:29:06 PM,8.84,0.49,-3.22,0.01,0.01,0.01
8:29:06 PM,8.94,0.54,-3.32,0.01,-0.04,0.01
8:29:06 PM,8.93,0.51,-3.35,-0.01,-0.03,0.01
8:29:07 PM,8.84,0.45,-3.26,-0.02,-0.03,0.01
8:29:07 PM,9.14,0.52,-3.40,0.02,-0.02,0.01
8:29:07 PM,8.77,0.46,-3.29,0.07,0.02,0.01
8:29:07 PM,8.99,0.47,-3.20,0.01,-0.03,0.01
8:29:07 PM,9.06,0.57,-3.31,0.02,0.04,0.01
8:29:07 PM,8.86,0.45,-3.24,0.00,-0.04,0.01
8:29:07 PM,9.10,0.48,-3.50,0.00,0.04,0.01
8:29:07 PM,9.00,0.58,-3.52,0.05,-0.02,0.01
8:29:07 PM,8.81,0.62,-3.26,0.05,-0.05,0.01
8:29:07 PM,8.93,0.48,-3.22,0.03,0.01,0.01
8:29:08 PM,8.82,0.54,-3.40,-0.01,-0.02,0.01
8:29:08 PM,9.00,0.61,-3.33,-0.01,-0.06,0.01
8:29:08 PM,8.86,0.52,-3.68,0.00,0.00,0.01
8:29:08 PM,8.85,0.51,-3.66,0.02,0.00,0.01
8:29:08 PM,9.06,0.49,-3.50,0.05,-0.03,0.01
8:29:08 PM,8.92,0.59,-3.47,0.07,0.01,0.01
8:29:08 PM,9.05,0.52,-3.24,0.13,-0.02,0.01
8:29:08 PM,9.20,0.53,-3.01,0.10,-0.02,0.01
8:29:08 PM,9.18,0.51,-2.99,0.06,-0.10,0.01
8:29:09 PM,9.14,0.41,-2.88,0.06,-0.05,0.01
8:29:09 PM,9.08,0.43,-2.97,-0.02,0.05,0.01
8:29:09 PM,9.00,0.49,-3.48,-0.03,-0.03,0.01
8:29:09 PM,8.74,0.58,-3.76,-0.04,0.02,0.01
8:29:09 PM,8.68,0.59,-3.94,0.01,-0.03,0.01
8:29:09 PM,8.81,0.51,-3.67,-0.02,-0.07,0.01
8:29:09 PM,9.06,0.41,-3.39,0.03,-0.01,0.01
8:29:09 PM,8.75,0.57,-3.45,-0.00,-0.01,0.01
8:29:09 PM,9.08,0.47,-3.30,0.02,-0.05,0.01
8:29:10 PM,8.85,0.51,-3.55,-0.02,0.01,0.01
8:29:10 PM,8.91,0.55,-3.53,-0.02,-0.01,0.01
8:29:10 PM,8.92,0.51,-3.40,-0.01,-0.04,0.01
8:29:10 PM,8.85,0.53,-3.55,-0.02,-0.02,0.01
8:29:10 PM,8.79,0.57,-3.73,-0.01,0.01,0.01
8:29:10 PM,8.73,0.60,-3.70,0.00,-0.03,0.01
8:29:10 PM,8.79,0.53,-3.88,0.00,-0.01,0.01
8:29:10 PM,9.04,0.48,-3.25,0.08,-0.03,0.01
8:29:10 PM,9.03,0.37,-2.93,-0.00,-0.03,0.01
8:29:10 PM,9.01,0.50,-3.31,0.01,-0.01,0.01
8:29:11 PM,8.90,0.50,-3.56,0.02,-0.03,0.01
8:29:11 PM,9.05,0.57,-3.59,0.06,0.01,0.01
8:29:11 PM,8.91,0.54,-3.60,-0.00,-0.04,0.01
8:29:11 PM,8.99,0.55,-3.63,-0.00,-0.02,0.01
8:29:11 PM,8.92,0.44,-3.45,0.02,-0.04,0.01
8:29:11 PM,8.87,0.55,-3.50,0.04,-0.00,0.01
8:29:11 PM,9.09,0.47,-3.34,0.00,-0.04,0.01
8:29:11 PM,8.99,0.44,-3.36,-0.01,-0.01,0.01
8:29:11 PM,9.18,0.45,-3.36,0.02,-0.02,0.01
8:29:12 PM,8.87,0.54,-3.36,0.03,0.01,0.01
8:29:13 PM,8.98,0.54,-3.16,0.05,-0.02,0.01
8:29:13 PM,9.04,0.50,-3.32,0.00,-0.01,0.01
8:29:13 PM,8.90,0.45,-3.41,-0.02,0.01,0.01
8:29:13 PM,9.02,0.43,-3.19,0.03,-0.06,0.01
8:29:13 PM,9.23,0.46,-3.35,0.07,0.03,0.01
8:29:13 PM,8.85,0.54,-3.33,0.06,-0.07,0.01
8:29:13 PM,9.04,0.40,-3.03,0.07,-0.00,0.01
8:29:13 PM,8.99,0.47,-3.23,0.05,-0.00,0.01
8:29:14 PM,8.83,0.55,-3.44,-0.03,-0.02,0.01
8:29:16 PM,8.79,0.55,-3.62,-0.05,-0.01,0.01
8:29:16 PM,8.84,0.53,-3.69,-0.00,0.04,0.01
8:29:16 PM,8.77,0.53,-3.71,-0.02,-0.02,0.01
8:29:16 PM,8.76,0.52,-3.76,-0.01,0.02,0.01
8:29:16 PM,9.02,0.52,-3.51,0.06,-0.05,0.01
8:29:16 PM,8.73,0.59,-3.45,0.04,-0.00,0.01
8:29:16 PM,9.01,0.49,-3.27,0.03,-0.03,0.01
8:29:16 PM,9.04,0.48,-3.27,0.03,-0.04,0.01
8:29:16 PM,8.81,0.52,-3.59,0.03,0.04,0.01
8:29:16 PM,8.86,0.48,-3.37,-0.04,-0.04,0.01
8:29:16 PM,8.90,0.48,-3.43,-0.02,-0.02,0.01
8:29:16 PM,8.93,0.48,-3.42,-0.02,-0.04,0.01
8:29:16 PM,8.99,0.46,-3.44,-0.01,-0.01,0.01
8:29:16 PM,8.71,0.50,-3.43,-0.03,-0.00,0.01
8:29:16 PM,9.05,0.46,-3.46,-0.01,-0.01,0.01
8:29:16 PM,8.99,0.43,-3.38,-0.02,-0.02,0.01
8:29:17 PM,8.90,0.43,-3.33,0.01,-0.04,0.01
8:29:17 PM,9.17,0.40,-3.31,0.03,0.00,0.01
8:29:17 PM,8.95,0.45,-3.37,-0.02,0.00,0.01
8:29:17 PM,9.01,0.51,-3.50,-0.00,-0.04,0.01
8:29:17 PM,8.89,0.56,-3.65,-0.02,-0.00,0.01
8:29:17 PM,8.88,0.54,-3.52,0.02,-0.01,0.01
8:29:17 PM,8.79,0.56,-3.50,0.01,-0.00,0.01
8:29:17 PM,8.71,0.52,-3.45,0.03,-0.00,0.01
8:29:17 PM,8.92,0.51,-3.32,0.09,-0.04,0.01
8:29:18 PM,8.80,0.47,-3.17,0.09,-0.10,0.01
8:29:18 PM,9.28,0.55,-3.05,0.07,0.00,0.01
8:29:18 PM,8.91,0.47,-3.21,0.07,-0.00,0.01
8:29:18 PM,8.80,0.48,-3.27,-0.01,-0.03,0.01
8:29:18 PM,8.86,0.45,-3.43,-0.01,-0.01,0.01
8:29:18 PM,8.85,0.45,-3.42,0.01,-0.02,0.01
8:29:18 PM,9.01,0.56,-3.56,0.02,0.04,0.01
8:29:18 PM,8.78,0.53,-3.58,-0.02,0.00,0.01
8:29:18 PM,8.79,0.56,-3.59,-0.04,-0.00,0.01
8:29:18 PM,8.94,0.46,-3.45,-0.02,-0.03,0.01
8:29:19 PM,8.92,0.40,-3.36,-0.04,0.00,0.01
8:29:19 PM,9.00,0.46,-3.44,-0.00,-0.06,0.01
8:29:19 PM,8.88,0.57,-3.62,0.01,0.02,0.01
8:29:19 PM,9.03,0.53,-3.52,0.04,-0.01,0.01
8:29:19 PM,8.95,0.47,-3.33,0.04,-0.03,0.01
8:29:19 PM,8.98,0.50,-3.37,0.01,-0.02,0.01
8:29:19 PM,9.25,0.49,-3.35,0.02,-0.03,0.01
8:29:19 PM,8.86,0.43,-3.24,-0.01,0.02,0.01
8:29:19 PM,9.00,0.47,-3.34,0.03,0.01,0.01
8:29:20 PM,8.73,0.51,-3.40,0.01,-0.05,0.01
8:29:20 PM,8.89,0.46,-3.56,-0.01,0.01,0.01
8:29:20 PM,9.01,0.52,-3.36,0.01,-0.06,0.01
8:29:20 PM,8.96,0.51,-3.39,0.04,-0.02,0.01
8:29:20 PM,8.86,0.53,-3.47,-0.02,-0.02,0.01
8:29:20 PM,8.98,0.43,-3.22,-0.01,-0.08,0.01
8:29:20 PM,9.05,0.47,-3.34,0.04,0.01,0.01
8:29:20 PM,8.99,0.54,-3.41,0.04,0.01,0.01
8:29:20 PM,9.12,0.49,-3.26,0.05,-0.05,0.01
8:29:20 PM,9.14,0.48,-3.25,0.05,-0.02,0.01
8:29:21 PM,9.02,0.47,-3.15,0.02,0.00,0.01
8:29:21 PM,8.86,0.45,-3.21,-0.01,-0.00,0.01
8:29:21 PM,9.14,0.45,-3.36,-0.01,-0.03,0.01
8:29:21 PM,9.10,0.52,-3.55,0.01,-0.01,0.01
8:29:21 PM,9.02,0.53,-3.53,0.02,-0.04,0.01
8:29:21 PM,9.07,0.43,-3.32,0.06,-0.01,0.01
8:29:21 PM,9.11,0.47,-3.30,0.03,0.05,0.01
8:29:21 PM,9.08,0.37,-2.88,0.05,-0.08,0.01
8:29:21 PM,9.09,0.54,-3.29,0.08,0.02,0.01
8:29:22 PM,9.22,0.52,-3.06,0.07,-0.04,0.01
8:29:22 PM,8.82,0.53,-3.22,0.02,0.02,0.01
8:29:22 PM,9.06,0.45,-3.16,0.03,-0.02,0.01
8:29:22 PM,8.83,0.50,-3.44,-0.03,-0.02,0.01
8:29:22 PM,9.01,0.50,-3.65,-0.05,-0.06,0.01
8:29:22 PM,8.84,0.58,-3.75,-0.01,-0.03,0.01
8:29:22 PM,8.67,0.62,-3.82,-0.04,0.03,0.01
8:29:22 PM,8.88,0.58,-3.87,-0.01,-0.02,0.01
8:29:22 PM,8.74,0.53,-3.83,0.01,0.01,0.01
8:29:22 PM,8.96,0.52,-3.49,0.05,-0.04,0.01
8:29:23 PM,8.88,0.46,-3.42,-0.01,-0.05,0.01
8:29:23 PM,8.92,0.40,-3.10,-0.03,-0.05,0.01
8:29:23 PM,9.17,0.47,-3.22,0.02,-0.02,0.01
8:29:23 PM,8.97,0.56,-3.38,0.01,0.06,0.01
8:29:23 PM,9.02,0.43,-3.17,-0.03,-0.06,0.01
8:29:23 PM,8.86,0.49,-3.67,-0.00,0.01,0.01
8:29:23 PM,8.66,0.54,-3.76,-0.01,0.02,0.01
8:29:23 PM,8.67,0.56,-3.72,-0.04,-0.02,0.01
8:29:23 PM,8.69,0.57,-3.76,-0.00,-0.00,0.01
8:29:24 PM,8.96,0.55,-3.67,0.01,-0.04,0.01
8:29:24 PM,8.84,0.60,-3.70,0.02,0.02,0.01
8:29:24 PM,8.92,0.49,-3.44,0.01,-0.06,0.01
8:29:24 PM,9.11,0.47,-3.36,0.02,-0.01,0.01
8:29:24 PM,8.99,0.41,-3.20,0.03,-0.04,0.01
8:29:24 PM,8.89,0.39,-3.28,-0.03,0.01,0.01
8:29:24 PM,8.89,0.48,-3.47,0.02,-0.00,0.01
8:29:24 PM,8.93,0.52,-3.54,0.06,0.03,0.01
8:29:24 PM,8.78,0.51,-3.36,0.01,-0.06,0.01
8:29:25 PM,9.04,0.49,-3.28,0.01,-0.03,0.01
8:29:25 PM,8.97,0.42,-3.20,-0.04,-0.00,0.01
8:29:25 PM,8.92,0.49,-3.60,-0.04,-0.06,0.01
8:29:25 PM,8.56,0.59,-3.86,-0.05,-0.05,0.01
8:29:25 PM,8.83,0.55,-3.87,-0.01,0.03,0.01
8:29:25 PM,8.79,0.49,-3.62,-0.00,-0.04,0.01
8:29:25 PM,8.90,0.48,-3.40,0.03,-0.01,0.01
8:29:25 PM,8.92,0.53,-3.40,0.01,-0.01,0.01
8:29:25 PM,8.96,0.51,-3.39,-0.01,-0.00,0.01
8:29:25 PM,9.10,0.55,-3.39,0.02,0.00,0.01
8:29:26 PM,8.84,0.53,-3.58,-0.03,-0.01,0.01
8:29:26 PM,8.77,0.57,-3.67,-0.03,-0.04,0.01
8:29:26 PM,8.81,0.57,-3.74,0.05,0.02,0.01
8:29:26 PM,8.81,0.56,-3.71,-0.03,-0.04,0.01
8:29:26 PM,8.65,0.57,-3.97,-0.00,-0.03,0.01
8:29:26 PM,8.98,0.55,-3.65,0.08,0.01,0.01
8:29:26 PM,8.96,0.49,-3.40,0.04,-0.02,0.01
8:29:26 PM,9.13,0.50,-3.23,0.03,-0.02,0.01
8:29:26 PM,8.86,0.47,-3.18,-0.01,-0.02,0.01
8:29:27 PM,9.05,0.46,-3.32,0.04,0.01,0.01
8:29:27 PM,8.94,0.45,-3.33,0.01,-0.03,0.01
8:29:27 PM,8.97,0.54,-3.51,-0.07,0.01,0.01
8:29:27 PM,8.83,0.54,-3.71,-0.01,0.03,0.01
8:29:27 PM,8.77,0.57,-3.79,0.05,-0.02,0.01
8:29:27 PM,9.00,0.47,-3.45,0.05,-0.03,0.01
8:29:27 PM,8.77,0.52,-3.53,-0.01,-0.01,0.01
8:29:27 PM,9.04,0.36,-3.19,0.01,-0.07,0.01
8:29:27 PM,8.98,0.41,-3.31,0.05,0.04,0.01
8:29:28 PM,9.08,0.28,-3.04,-0.03,-0.04,0.01
8:29:28 PM,9.01,0.35,-3.21,0.02,-0.05,0.01
8:29:28 PM,8.82,0.42,-3.35,-0.01,-0.02,0.01
8:29:28 PM,8.89,0.47,-3.58,0.00,-0.02,0.01
8:29:28 PM,9.03,0.40,-3.29,0.04,-0.00,0.01
8:29:28 PM,9.01,0.51,-3.52,-0.06,0.01,0.01
8:29:28 PM,8.67,0.56,-3.75,-0.05,0.00,0.01
8:29:28 PM,9.04,0.54,-3.79,0.04,0.03,0.01
8:29:28 PM,8.77,0.55,-3.71,0.02,-0.05,0.01
8:29:28 PM,8.77,0.55,-3.75,-0.03,-0.01,0.01
8:29:29 PM,9.26,0.34,-3.27,0.03,-0.06,0.01
8:29:29 PM,8.63,0.52,-3.55,0.02,0.02,0.01
8:29:29 PM,8.91,0.53,-3.71,-0.06,-0.02,0.01
8:29:29 PM,8.69,0.58,-3.79,-0.04,-0.03,0.01
8:29:29 PM,9.21,0.41,-3.57,0.05,-0.01,0.01
8:29:29 PM,9.11,0.42,-3.28,0.03,-0.03,0.01
8:29:29 PM,9.01,0.41,-3.09,0.07,-0.02,0.01
8:29:29 PM,9.00,0.45,-3.16,0.05,0.01,0.01
8:29:29 PM,9.15,0.49,-3.04,0.04,-0.03,0.01
8:29:29 PM,9.08,0.47,-3.40,-0.03,-0.01,0.01
8:29:30 PM,8.79,0.47,-3.60,-0.05,-0.01,0.01
8:29:30 PM,8.83,0.56,-3.72,0.01,-0.05,0.01
8:29:30 PM,9.00,0.49,-3.69,-0.03,-0.02,0.01
8:29:30 PM,8.70,0.58,-3.81,-0.04,-0.04,0.01
8:29:30 PM,8.78,0.63,-3.97,-0.01,0.00,0.01
8:29:30 PM,8.68,0.60,-3.69,0.05,-0.03,0.01
8:29:30 PM,8.96,0.53,-3.66,0.05,0.02,0.01
8:29:30 PM,8.99,0.48,-3.51,-0.02,-0.05,0.01
8:29:30 PM,8.90,0.57,-3.53,0.04,-0.01,0.01
8:29:31 PM,8.84,0.50,-3.44,0.03,-0.01,0.01
8:29:31 PM,9.05,0.51,-3.43,0.03,-0.02,0.01
8:29:31 PM,9.06,0.48,-3.34,0.02,0.00,0.01
8:29:31 PM,8.94,0.39,-3.30,-0.03,-0.03,0.01
8:29:31 PM,8.85,0.44,-3.60,-0.08,-0.00,0.01
8:29:31 PM,8.80,0.49,-3.88,-0.03,0.01,0.01
8:29:31 PM,8.72,0.51,-3.85,-0.02,-0.01,0.01
8:29:31 PM,8.81,0.54,-3.68,-0.01,-0.04,0.01
8:29:31 PM,8.82,0.52,-3.55,0.04,-0.04,0.01
8:29:31 PM,9.09,0.52,-3.44,0.05,-0.05,0.01
8:29:32 PM,8.97,0.51,-3.23,0.12,0.03,0.01
8:29:32 PM,8.85,0.56,-3.43,-0.01,0.04,0.01
8:29:32 PM,9.03,0.47,-3.33,0.01,-0.02,0.01
8:29:32 PM,8.90,0.51,-3.43,0.02,0.04,0.01
8:29:32 PM,9.01,0.52,-3.43,-0.00,-0.02,0.01
8:29:32 PM,8.91,0.45,-3.44,-0.03,-0.03,0.01
8:29:32 PM,9.02,0.40,-3.35,0.02,-0.06,0.01
8:29:32 PM,8.84,0.48,-3.55,-0.00,0.03,0.01
8:29:32 PM,8.64,0.50,-3.47,-0.00,0.01,0.01
8:29:33 PM,9.00,0.46,-3.54,-0.02,0.00,0.01
8:29:33 PM,9.02,0.51,-3.62,-0.02,-0.05,0.01
8:29:33 PM,8.77,0.52,-3.70,-0.00,-0.01,0.01
8:29:33 PM,9.13,0.40,-3.17,0.08,-0.09,0.01
8:29:33 PM,8.91,0.50,-3.39,0.05,0.02,0.01
8:29:33 PM,8.99,0.51,-3.36,0.01,-0.02,0.01
8:29:33 PM,9.03,0.50,-3.35,0.03,-0.05,0.01
8:29:33 PM,8.92,0.45,-3.28,0.01,-0.07,0.01
8:29:33 PM,8.86,0.47,-3.41,-0.03,-0.06,0.01
8:29:33 PM,8.69,0.47,-3.63,0.00,0.02,0.01
8:29:34 PM,8.68,0.56,-3.77,-0.01,0.00,0.01
8:29:34 PM,8.82,0.49,-3.68,-0.02,-0.02,0.01
8:29:34 PM,9.01,0.50,-3.72,0.01,-0.04,0.01
8:29:34 PM,8.78,0.54,-3.64,0.02,-0.02,0.01
8:29:34 PM,8.95,0.51,-3.55,-0.02,0.00,0.01
8:29:34 PM,8.81,0.53,-3.63,-0.02,-0.05,0.01
8:29:34 PM,8.88,0.61,-3.78,0.02,0.03,0.01
8:29:34 PM,8.82,0.48,-3.59,0.03,-0.03,0.01
8:29:34 PM,9.08,0.53,-3.51,0.01,0.00,0.01
8:29:35 PM,8.69,0.52,-3.45,-0.00,0.01,0.01
8:29:35 PM,9.11,0.42,-3.37,0.03,0.01,0.01
8:29:35 PM,8.78,0.49,-3.56,-0.03,0.01,0.01
8:29:35 PM,8.94,0.48,-3.52,-0.01,-0.02,0.01
8:29:35 PM,8.94,0.47,-3.61,0.02,-0.03,0.01
8:29:35 PM,8.87,0.47,-3.34,0.04,-0.04,0.01
8:29:35 PM,9.11,0.47,-3.31,0.04,-0.00,0.01
8:29:35 PM,8.96,0.46,-3.20,0.02,-0.05,0.01
8:29:35 PM,9.06,0.46,-3.20,-0.00,-0.01,0.01
8:29:36 PM,9.15,0.41,-3.10,0.02,-0.05,0.01
8:29:36 PM,8.81,0.42,-3.34,0.00,-0.01,0.01
8:29:36 PM,8.80,0.49,-3.59,-0.06,0.00,0.01
8:29:36 PM,8.85,0.50,-3.80,-0.02,0.01,0.01
8:29:36 PM,9.13,0.48,-3.54,0.02,-0.02,0.01
8:29:36 PM,8.99,0.48,-3.42,0.05,-0.04,0.01
8:29:36 PM,8.94,0.49,-3.41,0.03,0.02,0.01
8:29:36 PM,9.20,0.43,-3.26,0.02,-0.03,0.01
8:29:36 PM,8.97,0.46,-3.16,-0.01,-0.03,0.01
8:29:36 PM,9.09,0.49,-3.39,0.01,-0.02,0.01
8:29:37 PM,8.97,0.50,-3.48,0.00,-0.02,0.01
8:29:37 PM,9.04,0.56,-3.68,0.02,0.04,0.01
8:29:37 PM,8.81,0.49,-3.40,0.04,-0.03,0.01
8:29:37 PM,9.13,0.44,-3.16,0.06,-0.07,0.01
8:29:37 PM,9.06,0.50,-3.22,0.07,-0.01,0.01
8:29:37 PM,8.87,0.51,-3.50,-0.01,0.01,0.01
8:29:37 PM,8.85,0.52,-3.56,-0.02,-0.03,0.01
8:29:37 PM,8.86,0.54,-3.59,-0.01,-0.03,0.01
8:29:37 PM,8.74,0.56,-3.69,-0.00,-0.04,0.01
8:29:38 PM,8.79,0.44,-3.39,0.00,-0.02,0.01
8:29:38 PM,9.14,0.48,-3.39,0.02,0.01,0.01
8:29:38 PM,8.99,0.47,-3.24,0.04,-0.03,0.01
8:29:38 PM,8.70,0.55,-3.38,-0.01,-0.03,0.01
8:29:38 PM,8.78,0.55,-3.50,-0.03,0.04,0.01
8:29:38 PM,9.00,0.45,-3.40,-0.00,-0.05,0.01
8:29:38 PM,9.00,0.48,-3.43,0.01,-0.00,0.01
8:29:38 PM,8.99,0.51,-3.42,0.00,-0.01,0.01
8:29:38 PM,8.98,0.51,-3.54,0.02,0.01,0.01
8:29:38 PM,8.97,0.48,-3.45,0.01,-0.03,0.01
8:29:39 PM,9.06,0.52,-3.41,0.01,-0.00,0.01
8:29:39 PM,8.77,0.50,-3.53,0.02,-0.01,0.01
8:29:39 PM,8.90,0.43,-3.42,-0.01,0.00,0.01
8:29:39 PM,8.94,0.49,-3.42,0.01,-0.05,0.01
8:29:39 PM,8.90,0.53,-3.59,0.05,0.02,0.01
8:29:39 PM,8.64,0.55,-3.52,0.00,-0.01,0.01
8:29:39 PM,9.01,0.53,-3.51,-0.00,-0.00,0.01
8:29:39 PM,8.64,0.54,-3.61,0.05,-0.04,0.01
8:29:39 PM,8.94,0.53,-3.42,0.03,-0.04,0.01
8:29:40 PM,8.99,0.52,-3.39,0.07,-0.06,0.01
8:29:40 PM,8.79,0.55,-3.32,0.03,-0.04,0.01
8:29:40 PM,9.12,0.45,-3.35,-0.00,-0.03,0.01
8:29:40 PM,8.88,0.49,-3.42,-0.02,-0.03,0.01
8:29:40 PM,8.87,0.46,-3.46,-0.02,-0.02,0.01
8:29:40 PM,8.93,0.47,-3.55,-0.02,-0.00,0.01
8:29:40 PM,8.77,0.54,-3.64,-0.02,-0.02,0.01
8:29:40 PM,8.65,0.52,-3.81,-0.04,-0.01,0.01
8:29:40 PM,8.77,0.55,-3.69,0.02,-0.03,0.01
8:29:40 PM,8.76,0.50,-3.49,0.03,0.00,0.01
8:29:41 PM,8.95,0.57,-3.48,0.05,0.02,0.01
8:29:41 PM,8.92,0.49,-3.34,0.02,-0.07,0.01
8:29:41 PM,8.85,0.45,-3.38,-0.03,0.00,0.01
8:29:41 PM,8.82,0.51,-3.49,0.00,0.01,0.01
8:29:41 PM,8.91,0.53,-3.49,-0.01,-0.01,0.01
8:29:41 PM,8.85,0.52,-3.60,-0.02,0.01,0.01
8:29:41 PM,8.97,0.51,-3.44,0.00,-0.10,0.01
8:29:41 PM,8.83,0.47,-3.52,0.00,0.04,0.01
8:29:41 PM,9.07,0.40,-3.37,0.03,-0.05,0.01
8:29:42 PM,8.72,0.46,-3.37,0.02,0.01,0.01
8:29:42 PM,8.93,0.42,-3.06,-0.00,-0.06,0.01
8:29:42 PM,8.95,0.41,-3.54,0.04,0.03,0.01
8:29:42 PM,9.14,0.41,-3.31,0.04,-0.08,0.01
8:29:42 PM,9.11,0.42,-3.27,0.03,-0.02,0.01
8:29:42 PM,8.88,0.34,-3.42,-0.00,0.05,0.01
8:29:42 PM,8.88,0.43,-3.50,-0.00,-0.02,0.01
8:29:42 PM,8.86,0.41,-3.50,0.02,0.06,0.01
8:29:42 PM,8.90,0.46,-3.31,-0.02,-0.09,0.01
8:29:42 PM,8.77,0.46,-3.42,0.01,-0.04,0.01
8:29:43 PM,8.92,0.44,-3.30,0.07,-0.03,0.01
8:29:43 PM,8.78,0.29,-3.30,0.05,0.05,0.01
8:29:43 PM,8.71,0.50,-3.51,0.00,-0.01,0.01
8:29:43 PM,9.12,0.39,-3.42,0.02,0.01,0.01
8:29:43 PM,9.18,0.39,-3.38,0.02,-0.01,0.01
8:29:43 PM,8.82,0.49,-3.55,0.03,-0.04,0.01
8:29:43 PM,8.76,0.49,-3.71,0.03,0.05,0.01
8:29:43 PM,8.86,0.44,-3.51,0.03,0.01,0.01
8:29:43 PM,9.00,0.42,-3.43,0.03,0.01,0.01
8:29:44 PM,8.95,0.43,-3.32,0.01,0.01,0.01
8:29:44 PM,9.06,0.37,-3.07,-0.00,-0.07,0.01
8:29:44 PM,8.97,0.30,-3.08,-0.00,-0.01,0.01
8:29:44 PM,8.89,0.35,-3.24,-0.02,0.01,0.01
8:29:44 PM,9.41,0.33,-3.18,0.07,-0.04,0.01
8:29:44 PM,8.70,0.46,-3.46,-0.02,0.05,0.01
8:29:44 PM,9.02,0.35,-3.43,-0.02,-0.03,0.01
8:29:44 PM,8.96,0.45,-3.51,-0.00,0.04,0.01
8:29:44 PM,8.94,0.45,-3.40,0.05,-0.03,0.01
8:29:44 PM,8.81,0.60,-3.62,0.00,0.02,0.01
8:29:45 PM,8.98,0.42,-3.00,0.06,-0.09,0.01
8:29:45 PM,9.10,0.30,-2.91,0.05,-0.05,0.01
8:29:45 PM,9.26,0.34,-3.00,0.04,0.02,0.01
8:29:45 PM,8.86,0.46,-3.28,0.03,-0.02,0.01
8:29:45 PM,8.93,0.54,-3.43,0.02,0.03,0.01
8:29:45 PM,8.87,0.49,-3.68,-0.02,-0.01,0.01
8:29:45 PM,8.91,0.44,-3.26,-0.03,-0.07,0.01
8:29:45 PM,8.99,0.40,-3.30,-0.01,-0.01,0.01
8:29:45 PM,8.99,0.39,-3.33,0.02,-0.01,0.01
8:29:46 PM,8.84,0.46,-3.44,-0.01,-0.01,0.01
8:29:46 PM,8.71,0.45,-3.53,-0.04,-0.02,0.01
8:29:46 PM,9.07,0.51,-3.53,0.02,0.02,0.01
8:29:46 PM,9.00,0.48,-3.29,0.05,-0.04,0.01
8:29:46 PM,9.17,0.34,-2.98,0.03,-0.07,0.01
8:29:46 PM,9.03,0.29,-2.77,0.00,-0.02,0.01
8:29:46 PM,8.96,0.40,-3.34,-0.02,0.00,0.01
8:29:46 PM,8.81,0.42,-3.38,-0.03,-0.07,0.01
8:29:46 PM,8.71,0.43,-3.69,0.03,0.01,0.01
8:29:47 PM,9.13,0.36,-3.26,0.01,0.01,0.01
8:29:47 PM,9.11,0.45,-3.26,0.05,0.06,0.01
8:29:47 PM,9.02,0.47,-3.29,-0.01,-0.01,0.01
8:29:47 PM,8.56,0.53,-3.43,0.05,-0.04,0.01
8:29:47 PM,8.83,0.52,-3.56,0.05,0.09,0.01
8:29:47 PM,8.93,0.49,-3.36,0.03,-0.02,0.01
8:29:47 PM,8.85,0.49,-3.27,0.02,-0.04,0.01
8:29:47 PM,9.02,0.46,-3.23,0.03,-0.03,0.01
8:29:47 PM,9.13,0.37,-3.36,-0.03,-0.01,0.01
8:29:47 PM,8.94,0.41,-3.41,-0.04,0.01,0.01
8:29:48 PM,8.70,0.47,-3.67,-0.03,0.02,0.01
8:29:48 PM,8.78,0.43,-3.61,-0.03,0.00,0.01
8:29:48 PM,8.94,0.47,-3.46,0.01,0.04,0.01
8:29:48 PM,9.17,0.47,-3.28,0.04,0.02,0.01
8:29:48 PM,8.93,0.41,-3.41,-0.01,0.01,0.01
8:29:48 PM,8.83,0.35,-3.22,0.02,-0.01,0.01
8:29:48 PM,8.89,0.36,-3.36,0.00,0.00,0.01
8:29:48 PM,9.13,0.42,-3.25,-0.01,-0.02,0.01
8:29:48 PM,8.84,0.45,-3.40,0.00,-0.04,0.01
8:29:49 PM,8.79,0.47,-3.38,0.05,0.01,0.01
8:29:49 PM,9.17,0.44,-3.28,0.04,-0.04,0.01
8:29:49 PM,9.05,0.34,-2.89,0.04,-0.02,0.01
8:29:49 PM,8.95,0.38,-3.22,0.01,0.05,0.01
8:29:49 PM,8.96,0.37,-3.10,0.01,-0.05,0.01
8:29:49 PM,8.87,0.38,-3.10,0.01,0.01,0.01
8:29:49 PM,8.98,0.50,-3.25,0.02,-0.00,0.01
8:29:49 PM,8.98,0.45,-3.32,0.01,0.02,0.01
8:29:49 PM,8.94,0.46,-3.36,0.01,-0.03,0.01
8:29:49 PM,9.14,0.48,-3.23,0.01,-0.03,0.01
8:29:50 PM,8.93,0.37,-3.27,-0.01,-0.01,0.01
8:29:50 PM,9.09,0.38,-3.35,-0.03,0.00,0.01
8:29:50 PM,8.98,0.43,-3.40,0.01,-0.01,0.01
8:29:50 PM,8.98,0.43,-3.38,-0.00,-0.02,0.01
8:29:50 PM,9.01,0.37,-3.30,0.01,-0.04,0.01
8:29:50 PM,9.20,0.35,-3.13,-0.02,-0.02,0.01
8:29:50 PM,8.91,0.37,-3.22,-0.03,-0.07,0.01
8:29:50 PM,9.05,0.43,-3.40,-0.03,0.02,0.01
8:29:50 PM,8.91,0.46,-3.54,-0.03,-0.06,0.01
8:29:51 PM,8.96,0.48,-3.46,0.04,-0.01,0.01
8:29:51 PM,9.02,0.34,-3.16,0.02,-0.04,0.01
8:29:51 PM,9.14,0.30,-2.76,0.05,-0.11,0.01
8:29:51 PM,9.00,0.45,-3.44,0.03,0.04,0.01
8:29:51 PM,8.71,0.44,-3.48,-0.03,-0.03,0.01
8:29:51 PM,9.11,0.29,-3.34,-0.02,-0.10,0.01
8:29:51 PM,8.80,0.52,-3.41,0.02,-0.02,0.01
8:29:51 PM,8.88,0.40,-3.39,0.04,0.16,0.01
8:29:51 PM,9.10,0.33,-3.15,-0.03,-0.06,0.01
8:29:51 PM,8.87,0.36,-3.24,-0.05,-0.02,0.01
8:29:52 PM,8.97,0.40,-3.39,0.01,-0.03,0.01
8:29:52 PM,8.75,0.33,-3.34,-0.03,-0.03,0.01
8:29:52 PM,8.90,0.44,-3.45,-0.01,-0.01,0.01
8:29:52 PM,8.86,0.40,-3.32,0.02,-0.04,0.01
8:29:52 PM,8.77,0.49,-3.53,0.00,0.07,0.01
8:29:52 PM,9.12,0.45,-3.29,0.06,-0.03,0.01
8:29:52 PM,8.73,0.48,-3.25,0.01,0.01,0.01
8:29:52 PM,9.06,0.45,-3.10,0.05,-0.04,0.01
8:29:52 PM,8.89,0.43,-3.14,0.05,0.02,0.01
8:29:53 PM,9.25,0.38,-2.97,0.05,-0.02,0.01
8:29:53 PM,9.24,0.40,-2.83,0.04,-0.05,0.01
8:29:53 PM,8.95,0.26,-2.99,0.01,-0.04,0.01
8:29:53 PM,8.87,0.45,-3.39,0.02,-0.01,0.01
8:29:53 PM,8.85,0.45,-3.39,-0.03,-0.01,0.01
8:29:53 PM,8.94,0.41,-3.33,0.00,-0.01,0.01
8:29:53 PM,8.83,0.36,-3.17,0.04,-0.04,0.01
8:29:53 PM,8.98,0.35,-3.25,0.03,0.01,0.01
8:29:53 PM,8.90,0.38,-3.32,-0.01,0.03,0.01
8:29:53 PM,9.03,0.36,-3.25,-0.02,-0.00,0.01
8:29:54 PM,9.11,0.37,-3.26,-0.01,0.01,0.01
8:29:54 PM,9.05,0.41,-3.21,-0.01,0.00,0.01
8:29:54 PM,9.00,0.43,-3.38,-0.01,0.02,0.01
8:29:54 PM,8.82,0.44,-3.55,-0.00,-0.03,0.01
8:29:54 PM,8.89,0.46,-3.49,0.03,0.03,0.01
8:29:54 PM,8.81,0.50,-3.43,-0.04,0.00,0.01
8:29:54 PM,8.90,0.41,-3.24,0.01,-0.08,0.01
8:29:54 PM,9.08,0.34,-3.25,-0.03,0.01,0.01
8:29:54 PM,8.96,0.41,-3.32,-0.01,-0.07,0.01
8:29:55 PM,9.03,0.38,-3.28,0.01,-0.03,0.01
8:29:55 PM,8.94,0.40,-3.39,0.01,0.01,0.01
8:29:55 PM,9.01,0.50,-3.51,0.05,0.04,0.01
8:29:55 PM,8.82,0.46,-3.24,0.02,-0.02,0.01
8:29:55 PM,8.98,0.34,-3.17,0.03,0.04,0.01
8:29:55 PM,9.22,0.45,-3.18,-0.00,0.00,0.01
8:29:55 PM,8.78,0.51,-3.42,0.03,-0.03,0.01
8:29:55 PM,8.95,0.54,-3.38,0.03,0.04,0.01
8:29:55 PM,9.04,0.38,-3.03,0.08,-0.04,0.01
8:29:56 PM,8.97,0.42,-2.92,0.03,-0.08,0.01
8:29:56 PM,9.05,0.35,-3.07,-0.03,0.01,0.01
8:29:56 PM,8.75,0.40,-3.37,-0.01,-0.01,0.01
8:29:56 PM,8.94,0.35,-3.32,-0.02,-0.02,0.01
8:29:56 PM,8.97,0.40,-3.32,0.02,-0.03,0.01
8:29:56 PM,8.94,0.41,-3.27,0.01,0.01,0.01
8:29:56 PM,9.12,0.36,-3.22,0.02,-0.03,0.01
8:29:56 PM,8.94,0.41,-3.13,0.06,0.01,0.01
8:29:56 PM,8.82,0.41,-3.26,0.02,-0.03,0.01
8:29:56 PM,8.88,0.35,-3.15,0.04,-0.01,0.01
8:29:57 PM,9.06,0.34,-3.04,-0.01,-0.00,0.01
8:29:57 PM,8.89,0.43,-3.24,0.01,0.03,0.01
8:29:57 PM,8.97,0.35,-3.35,0.00,0.02,0.01
8:29:57 PM,9.15,0.36,-3.20,0.00,-0.07,0.01
8:29:57 PM,8.51,0.44,-3.47,0.00,-0.03,0.01
8:29:57 PM,9.00,0.42,-3.27,0.01,-0.01,0.01
8:29:57 PM,8.91,0.43,-3.19,0.01,0.01,0.01
8:29:57 PM,9.21,0.34,-3.09,-0.01,-0.06,0.01
8:29:57 PM,8.96,0.40,-3.20,0.01,-0.04,0.01
8:29:57 PM,9.13,0.41,-3.36,0.03,0.02,0.01
8:29:58 PM,8.97,0.31,-3.21,0.01,-0.04,0.01
8:29:58 PM,9.08,0.37,-3.06,0.04,-0.04,0.01
8:29:58 PM,8.78,0.36,-3.15,-0.03,-0.02,0.01
8:29:58 PM,9.00,0.41,-3.29,-0.03,-0.02,0.01
8:29:58 PM,8.95,0.41,-3.44,-0.03,0.03,0.01
8:29:58 PM,8.91,0.47,-3.54,-0.01,-0.02,0.01
8:29:58 PM,8.85,0.34,-3.45,-0.03,-0.03,0.01
8:29:58 PM,9.01,0.34,-3.35,-0.02,-0.01,0.01
8:29:58 PM,8.97,0.47,-3.58,0.01,-0.03,0.01
8:29:59 PM,8.84,0.55,-3.61,0.04,-0.03,0.01
8:29:59 PM,8.92,0.39,-3.35,0.00,-0.03,0.01
8:29:59 PM,8.98,0.45,-3.45,0.03,-0.02,0.01
8:29:59 PM,9.07,0.39,-3.21,0.08,-0.00,0.01
8:29:59 PM,9.05,0.43,-3.09,0.05,-0.00,0.01
8:29:59 PM,8.72,0.42,-3.24,0.03,0.04,0.01
8:29:59 PM,9.19,0.43,-3.15,-0.02,-0.05,0.01
8:29:59 PM,9.00,0.42,-3.48,-0.01,0.00,0.01
8:29:59 PM,8.94,0.46,-3.58,0.00,0.07,0.01
8:30:00 PM,9.00,0.45,-3.36,0.01,0.01,0.01
8:30:00 PM,9.14,0.49,-3.32,0.05,0.03,0.01
8:30:00 PM,9.09,0.44,-3.01,0.09,-0.03,0.01
8:30:00 PM,8.97,0.39,-3.00,-0.06,-0.02,0.01
8:30:00 PM,8.93,0.37,-3.24,-0.03,-0.08,0.01
8:30:00 PM,9.09,0.30,-3.16,-0.01,-0.06,0.01
8:30:00 PM,8.83,0.36,-3.21,-0.02,-0.03,0.01
8:30:00 PM,9.05,0.38,-3.15,0.03,0.01,0.01
8:30:00 PM,9.05,0.45,-3.32,-0.01,0.02,0.01
8:30:00 PM,8.82,0.39,-3.27,0.01,0.03,0.01
8:30:01 PM,9.11,0.40,-3.17,-0.03,-0.04,0.01
8:30:01 PM,9.02,0.37,-2.90,0.01,-0.08,0.01
8:30:01 PM,9.09,0.42,-3.06,-0.01,0.06,0.01
8:30:01 PM,8.95,0.47,-3.20,-0.04,-0.06,0.01
8:30:01 PM,9.01,0.39,-3.35,-0.09,0.02,0.01
8:30:01 PM,9.00,0.37,-3.22,0.03,-0.10,0.01
8:30:01 PM,8.87,0.42,-3.46,-0.02,0.02,0.01
8:30:01 PM,8.92,0.38,-3.38,-0.02,-0.00,0.01
8:30:01 PM,9.13,0.42,-3.38,-0.00,0.01,0.01
8:30:02 PM,9.12,0.34,-3.10,0.04,-0.07,0.01
8:30:02 PM,8.98,0.27,-3.11,0.00,0.00,0.01
8:30:02 PM,8.99,0.34,-3.06,0.01,0.00,0.01
8:30:02 PM,9.07,0.33,-3.20,-0.04,-0.04,0.01
8:30:02 PM,9.00,0.38,-3.34,0.01,-0.01,0.01
8:30:02 PM,8.87,0.43,-3.15,0.05,-0.06,0.01
8:30:02 PM,8.90,0.42,-3.30,0.04,0.03,0.01
8:30:02 PM,8.95,0.42,-3.22,-0.01,-0.02,0.01
8:30:02 PM,8.84,0.46,-3.39,-0.01,0.00,0.01
8:30:02 PM,9.04,0.43,-3.31,0.03,0.00,0.01
8:30:03 PM,9.01,0.44,-3.20,0.05,0.00,0.01
8:30:03 PM,9.22,0.39,-3.00,0.05,-0.03,0.01
8:30:03 PM,9.09,0.37,-3.05,0.01,0.07,0.01
8:30:03 PM,9.04,0.31,-2.87,0.01,-0.04,0.01
8:30:03 PM,9.12,0.43,-3.10,0.02,0.03,0.01
8:30:03 PM,9.09,0.43,-3.04,-0.00,-0.04,0.01
8:30:03 PM,9.07,0.40,-3.25,-0.02,0.01,0.01
8:30:03 PM,9.03,0.34,-3.08,-0.02,-0.05,0.01
8:30:03 PM,9.03,0.48,-3.50,0.00,0.02,0.01
8:30:04 PM,8.88,0.46,-3.38,0.03,-0.04,0.01
8:30:04 PM,8.99,0.45,-3.33,-0.01,-0.02,0.01
8:30:04 PM,8.97,0.46,-3.38,-0.01,-0.02,0.01
8:30:04 PM,8.86,0.49,-3.37,0.03,-0.02,0.01
8:30:04 PM,8.99,0.40,-3.20,0.03,-0.01,0.01
8:30:04 PM,8.96,0.39,-3.16,0.04,0.03,0.01
8:30:04 PM,8.98,0.52,-3.32,0.03,-0.01,0.01
8:30:04 PM,8.74,0.51,-3.58,-0.01,-0.02,0.01
8:30:04 PM,9.06,0.39,-3.18,0.00,-0.08,0.01
8:30:04 PM,8.75,0.46,-3.39,-0.00,0.02,0.01
8:30:05 PM,9.00,0.44,-3.30,-0.01,-0.04,0.01
8:30:05 PM,8.94,0.45,-3.28,0.03,-0.04,0.01
8:30:05 PM,8.75,0.40,-3.22,-0.01,-0.05,0.01
8:30:05 PM,9.13,0.35,-3.02,0.02,-0.00,0.01
8:30:05 PM,9.00,0.30,-3.03,-0.03,-0.00,0.01
8:30:05 PM,9.03,0.34,-3.06,-0.01,-0.04,0.01
8:30:05 PM,8.93,0.36,-3.08,0.03,-0.06,0.01
8:30:05 PM,9.07,0.45,-3.49,0.01,0.05,0.01
8:30:05 PM,9.06,0.48,-3.53,0.02,-0.05,0.01
8:30:06 PM,8.86,0.37,-3.29,0.00,-0.04,0.01
8:30:06 PM,9.02,0.44,-3.14,0.05,0.00,0.01
8:30:06 PM,8.94,0.43,-3.30,-0.01,-0.03,0.01
8:30:06 PM,8.84,0.47,-3.39,-0.01,0.01,0.01
8:30:06 PM,9.17,0.39,-3.14,0.01,-0.07,0.01
8:30:06 PM,8.95,0.41,-3.19,-0.00,0.02,0.01
8:30:06 PM,8.85,0.38,-3.28,-0.02,0.00,0.01
8:30:06 PM,9.11,0.40,-3.13,0.01,-0.03,0.01
8:30:06 PM,8.97,0.42,-3.20,0.01,-0.02,0.01
8:30:06 PM,9.08,0.42,-3.19,0.06,0.00,0.01
8:30:07 PM,8.79,0.49,-2.94,0.00,0.01,0.01
8:30:07 PM,9.20,0.31,-2.85,0.03,-0.08,0.01
8:30:07 PM,9.03,0.40,-2.99,0.01,-0.01,0.01
8:30:07 PM,8.97,0.41,-3.11,0.04,0.00,0.01
8:30:07 PM,9.10,0.41,-3.06,0.02,-0.02,0.01
8:30:07 PM,9.10,0.37,-3.07,0.04,-0.02,0.01
8:30:07 PM,9.08,0.37,-2.99,0.00,-0.05,0.01
8:30:07 PM,9.06,0.37,-3.02,0.00,0.01,0.01
8:30:07 PM,8.87,0.46,-3.19,-0.01,0.03,0.01
8:30:08 PM,8.87,0.42,-3.25,0.01,-0.03,0.01
8:30:08 PM,9.07,0.35,-3.21,-0.01,0.00,0.01
8:30:08 PM,8.94,0.43,-3.27,-0.02,-0.03,0.01
8:30:08 PM,8.90,0.43,-3.35,0.02,-0.04,0.01
8:30:08 PM,8.97,0.35,-3.14,0.03,-0.01,0.01
8:30:08 PM,8.78,0.45,-2.97,0.01,0.02,0.01
8:30:08 PM,9.10,0.48,-3.09,0.04,-0.02,0.01
8:30:08 PM,9.09,0.49,-3.09,0.02,-0.02,0.01
8:30:08 PM,9.05,0.45,-3.26,0.01,-0.06,0.01
8:30:09 PM,9.06,0.39,-3.09,0.02,-0.01,0.01
8:30:09 PM,8.98,0.37,-2.95,0.02,-0.02,0.01
8:30:09 PM,9.05,0.37,-3.14,-0.01,-0.05,0.01
8:30:09 PM,9.08,0.46,-3.32,0.03,-0.01,0.01
8:30:09 PM,9.00,0.39,-3.15,0.00,-0.01,0.01
8:30:09 PM,9.05,0.44,-3.12,0.03,0.03,0.01
8:30:09 PM,8.94,0.29,-3.13,0.02,-0.01,0.01
8:30:09 PM,9.02,0.43,-3.17,0.02,-0.02,0.01
8:30:09 PM,9.02,0.40,-3.14,0.00,0.00,0.01
8:30:09 PM,8.93,0.37,-3.33,-0.01,0.00,0.01
8:30:10 PM,8.81,0.44,-3.32,-0.01,0.00,0.01
8:30:10 PM,9.07,0.40,-3.28,-0.01,-0.05,0.01
8:30:10 PM,8.86,0.48,-3.37,0.02,0.00,0.01
8:30:10 PM,8.98,0.44,-3.23,0.01,-0.07,0.01
8:30:10 PM,8.92,0.41,-3.28,-0.01,-0.02,0.01
8:30:10 PM,8.85,0.41,-3.38,-0.01,0.01,0.01
8:30:10 PM,8.99,0.38,-3.19,0.01,-0.02,0.01
8:30:10 PM,8.93,0.42,-3.21,0.01,-0.02,0.01
8:30:10 PM,8.88,0.39,-3.24,-0.02,-0.05,0.01
8:30:11 PM,9.14,0.34,-3.24,0.05,-0.01,0.01
8:30:11 PM,8.87,0.43,-3.28,0.00,-0.02,0.01
8:30:11 PM,8.87,0.45,-3.31,0.00,0.01,0.01
8:30:11 PM,8.85,0.45,-3.42,-0.02,-0.00,0.01
8:30:11 PM,8.78,0.45,-3.60,-0.03,0.01,0.01
8:30:11 PM,9.16,0.33,-3.52,0.00,-0.02,0.01
8:30:11 PM,9.16,0.38,-3.39,0.02,0.01,0.01
8:30:11 PM,8.71,0.43,-3.34,0.03,-0.01,0.01
8:30:11 PM,9.14,0.42,-3.24,0.02,-0.01,0.01
8:30:11 PM,9.17,0.39,-3.14,0.04,-0.05,0.01
8:30:12 PM,9.09,0.36,-3.05,0.07,0.02,0.01
8:30:12 PM,9.05,0.40,-3.09,0.03,-0.00,0.01
8:30:12 PM,9.03,0.30,-2.80,0.01,-0.07,0.01
8:30:12 PM,8.96,0.43,-3.06,0.01,0.04,0.01
8:30:12 PM,8.86,0.46,-3.11,-0.01,-0.07,0.01
8:30:12 PM,8.81,0.43,-3.29,-0.04,0.03,0.01
8:30:12 PM,9.01,0.47,-3.38,0.00,-0.03,0.01
8:30:12 PM,8.93,0.29,-3.05,0.03,-0.08,0.01
8:30:12 PM,8.88,0.40,-3.24,0.04,0.00,0.01
8:30:13 PM,9.28,0.41,-3.20,0.05,-0.02,0.01
8:30:13 PM,8.72,0.44,-3.11,0.04,-0.05,0.01
8:30:13 PM,8.98,0.36,-3.07,0.08,0.02,0.01
8:30:13 PM,8.97,0.39,-2.98,0.00,0.01,0.01
8:30:13 PM,9.00,0.39,-3.23,-0.05,-0.01,0.01
8:30:13 PM,9.26,0.31,-3.22,0.02,-0.07,0.01
8:30:13 PM,8.76,0.36,-3.31,0.00,-0.03,0.01
8:30:13 PM,9.13,0.37,-3.39,-0.00,0.06,0.01
8:30:13 PM,8.95,0.36,-3.26,-0.00,-0.04,0.01
8:30:13 PM,8.83,0.43,-3.48,-0.01,0.01,0.01
8:30:14 PM,9.09,0.29,-3.07,0.03,-0.06,0.01
8:30:14 PM,8.97,0.38,-3.02,0.02,-0.01,0.01
8:30:14 PM,9.03,0.46,-3.28,0.01,0.00,0.01
8:30:14 PM,8.88,0.46,-3.40,-0.01,-0.04,0.01
8:30:14 PM,8.88,0.43,-3.43,0.03,-0.00,0.01
8:30:14 PM,8.97,0.34,-3.26,-0.00,-0.01,0.01
8:30:14 PM,9.04,0.38,-3.10,0.06,-0.03,0.01
8:30:14 PM,8.74,0.39,-3.11,0.00,-0.02,0.01
8:30:14 PM,9.03,0.32,-2.97,0.03,0.01,0.01
8:30:15 PM,8.91,0.39,-3.15,-0.03,0.01,0.01
8:30:15 PM,8.95,0.46,-3.24,-0.02,-0.11,0.01
8:30:15 PM,9.04,0.41,-3.37,-0.01,-0.03,0.01
8:30:15 PM,8.92,0.41,-3.37,-0.01,0.02,0.01
8:30:15 PM,8.99,0.44,-3.50,-0.03,-0.01,0.01
8:30:15 PM,8.74,0.47,-3.73,0.00,0.01,0.01
8:30:15 PM,8.96,0.43,-3.63,-0.00,-0.05,0.01
8:30:15 PM,8.95,0.43,-3.46,0.01,-0.06,0.01
8:30:15 PM,9.08,0.38,-3.10,0.07,-0.05,0.01
8:30:15 PM,9.08,0.34,-2.98,0.03,-0.05,0.01
8:30:16 PM,8.78,0.43,-3.29,-0.02,0.00,0.01
8:30:16 PM,9.15,0.40,-3.24,-0.00,0.02,0.01
8:30:16 PM,9.05,0.35,-2.69,0.07,-0.11,0.01
8:30:16 PM,8.89,0.41,-3.12,0.03,0.03,0.01
8:30:16 PM,9.15,0.39,-3.26,0.01,-0.03,0.01
8:30:16 PM,9.05,0.32,-3.18,0.02,-0.02,0.01
8:30:16 PM,8.93,0.36,-3.33,-0.01,-0.04,0.01
8:30:16 PM,8.88,0.38,-3.45,-0.01,0.04,0.01
8:30:16 PM,9.08,0.38,-3.21,0.08,-0.07,0.01
8:30:17 PM,8.84,0.38,-3.26,0.01,0.00,0.01
8:30:17 PM,8.98,0.39,-3.24,0.03,-0.02,0.01
8:30:17 PM,9.01,0.39,-3.32,0.01,-0.01,0.01
8:30:17 PM,9.06,0.39,-3.20,0.05,-0.00,0.01
8:30:17 PM,9.07,0.44,-3.16,0.02,-0.07,0.01
8:30:17 PM,8.92,0.36,-3.10,-0.00,-0.05,0.01
8:30:17 PM,9.05,0.35,-3.08,0.04,-0.04,0.01
8:30:17 PM,9.12,0.34,-3.26,-0.02,0.01,0.01
8:30:17 PM,8.98,0.41,-3.38,-0.02,-0.00,0.01
8:30:17 PM,8.95,0.31,-3.17,0.01,-0.02,0.01
8:30:18 PM,8.92,0.35,-3.13,-0.00,-0.06,0.01
8:30:18 PM,8.88,0.45,-3.48,0.02,0.09,0.01
8:30:18 PM,9.12,0.36,-3.21,0.04,0.00,0.01
8:30:18 PM,9.00,0.40,-3.16,-0.02,0.00,0.01
8:30:18 PM,8.86,0.34,-3.17,-0.02,-0.00,0.01
8:30:18 PM,8.98,0.26,-3.09,-0.02,-0.03,0.01
8:30:18 PM,8.79,0.39,-3.43,-0.04,-0.01,0.01
8:30:18 PM,9.18,0.38,-3.35,0.00,-0.05,0.01
8:30:18 PM,8.91,0.34,-3.35,-0.01,-0.04,0.01
8:30:19 PM,8.97,0.35,-3.38,0.00,0.01,0.01
8:30:19 PM,9.09,0.38,-3.33,0.02,-0.02,0.01
8:30:19 PM,8.95,0.35,-3.23,0.01,-0.01,0.01
8:30:19 PM,8.87,0.35,-3.39,-0.02,0.05,0.01
8:30:19 PM,8.97,0.34,-3.20,-0.00,-0.02,0.01
8:30:19 PM,8.70,0.39,-3.34,-0.06,-0.00,0.01
8:30:19 PM,8.97,0.39,-3.54,-0.02,-0.01,0.01
8:30:19 PM,8.79,0.36,-3.54,0.00,-0.02,0.01
8:30:19 PM,9.12,0.35,-3.44,0.00,-0.02,0.01
8:30:19 PM,8.74,0.39,-3.43,0.01,0.00,0.01
8:30:20 PM,9.08,0.37,-3.28,0.04,0.02,0.01
8:30:20 PM,8.99,0.38,-3.22,0.03,0.02,0.01
8:30:20 PM,9.00,0.39,-2.92,0.07,-0.02,0.01
8:30:20 PM,9.00,0.38,-2.98,0.01,-0.03,0.01
8:30:20 PM,8.91,0.44,-3.33,-0.02,0.03,0.01
8:30:20 PM,8.90,0.43,-3.35,-0.02,0.02,0.01
8:30:20 PM,8.92,0.39,-3.36,-0.03,0.00,0.01
8:30:20 PM,8.98,0.35,-3.44,0.01,-0.01,0.01
8:30:20 PM,9.06,0.40,-3.30,0.03,-0.03,0.01
8:30:21 PM,9.18,0.41,-3.11,0.09,-0.07,0.01
8:30:21 PM,9.00,0.34,-3.13,-0.02,-0.01,0.01
8:30:21 PM,8.98,0.39,-3.34,-0.03,0.01,0.01
8:30:21 PM,8.87,0.27,-3.19,-0.00,-0.07,0.01
8:30:21 PM,8.85,0.31,-3.30,-0.01,0.01,0.01
8:30:21 PM,9.07,0.32,-3.16,0.05,-0.06,0.01
8:30:21 PM,9.09,0.25,-3.06,-0.00,-0.02,0.01
8:30:21 PM,8.83,0.29,-3.27,-0.03,-0.05,0.01
8:30:21 PM,8.94,0.33,-3.36,-0.00,-0.02,0.01
8:30:22 PM,8.89,0.28,-3.28,-0.03,-0.03,0.01
8:30:22 PM,8.80,0.38,-3.48,-0.00,0.01,0.01
8:30:22 PM,9.01,0.35,-3.35,0.05,-0.01,0.01
8:30:22 PM,8.85,0.40,-3.30,0.04,-0.01,0.01
8:30:22 PM,8.95,0.39,-3.39,0.03,0.01,0.01
8:30:22 PM,9.22,0.32,-3.20,0.05,-0.04,0.01
8:30:22 PM,8.90,0.36,-3.09,0.04,-0.00,0.01
8:30:22 PM,8.99,0.28,-2.97,-0.01,-0.03,0.01
8:30:22 PM,8.57,0.13,-2.21,-0.17,0.16,0.01
8:30:22 PM,8.89,0.52,-3.08,0.07,-0.11,0.01
8:30:23 PM,9.00,0.51,-2.99,0.01,-0.04,0.01
8:30:23 PM,8.96,0.50,-3.05,0.02,-0.01,0.01
8:30:23 PM,9.06,0.41,-2.94,0.06,0.01,0.01
8:30:23 PM,8.81,0.50,-3.03,0.01,-0.00,0.01
8:30:23 PM,9.04,0.52,-3.08,0.02,-0.01,0.01
8:30:23 PM,9.05,0.57,-3.15,-0.03,0.01,0.01
8:30:23 PM,9.00,0.46,-2.97,0.04,-0.10,0.01
8:30:23 PM,8.93,0.49,-3.16,0.01,0.03,0.01
8:30:23 PM,8.84,0.51,-3.15,0.00,-0.02,0.01
8:30:24 PM,9.09,0.47,-3.22,-0.01,0.00,0.01
8:30:24 PM,9.00,0.42,-3.07,0.02,-0.04,0.01
8:30:24 PM,9.06,0.44,-2.99,0.03,-0.05,0.01
8:30:24 PM,8.94,0.47,-3.25,-0.01,-0.01,0.01
8:30:24 PM,9.08,0.42,-3.09,0.01,-0.06,0.01
8:30:24 PM,9.02,0.49,-3.24,-0.00,-0.01,0.01
8:30:24 PM,8.87,0.52,-3.34,-0.01,-0.00,0.01
8:30:24 PM,8.91,0.51,-3.38,-0.01,-0.02,0.01
8:30:24 PM,8.90,0.55,-3.33,0.01,-0.02,0.01
8:30:24 PM,8.87,0.48,-3.30,-0.01,0.06,0.01
8:30:25 PM,8.84,0.57,-3.24,0.01,-0.06,0.01
8:30:25 PM,9.09,0.58,-3.30,0.02,-0.05,0.01
8:30:25 PM,8.85,0.53,-3.35,0.02,-0.00,0.01
8:30:25 PM,9.03,0.50,-3.34,0.02,-0.02,0.01
8:30:25 PM,9.15,0.47,-3.04,0.06,-0.05,0.01
8:30:25 PM,8.93,0.46,-3.02,-0.02,-0.03,0.01
8:30:25 PM,8.97,0.45,-3.06,-0.01,-0.03,0.01
8:30:25 PM,9.19,0.43,-2.95,0.03,-0.03,0.01
8:30:25 PM,9.23,0.30,-2.61,0.03,-0.02,0.01
8:30:26 PM,9.23,0.46,-3.00,0.04,0.04,0.01
8:30:26 PM,8.95,0.51,-3.20,0.01,-0.02,0.01
8:30:26 PM,9.09,0.52,-3.20,0.03,0.03,0.01
8:30:26 PM,9.11,0.49,-3.11,0.04,0.01,0.01
8:30:26 PM,9.16,0.49,-3.06,0.02,-0.01,0.01
8:30:26 PM,9.05,0.40,-2.94,0.02,-0.03,0.01
8:30:26 PM,8.96,0.50,-3.03,0.05,-0.02,0.01
8:30:26 PM,9.15,0.46,-2.92,0.06,-0.03,0.01
8:30:26 PM,9.02,0.48,-2.93,0.02,-0.03,0.01
8:30:26 PM,8.92,0.42,-2.95,-0.01,-0.02,0.01
8:30:27 PM,9.13,0.38,-2.96,-0.01,-0.05,0.01
8:30:27 PM,8.79,0.50,-3.31,-0.00,0.02,0.01
8:30:27 PM,8.93,0.51,-3.30,-0.01,-0.02,0.01
8:30:27 PM,8.96,0.49,-3.14,0.01,-0.04,0.01
8:30:27 PM,8.85,0.49,-3.26,-0.00,-0.01,0.01
8:30:27 PM,8.78,0.56,-3.31,0.08,-0.01,0.01
8:30:27 PM,8.94,0.47,-3.08,0.01,-0.07,0.01
8:30:27 PM,8.96,0.48,-3.18,0.00,-0.04,0.01
8:30:27 PM,8.85,0.47,-3.20,0.02,-0.02,0.01
8:30:28 PM,8.98,0.43,-3.05,0.01,-0.01,0.01
8:30:28 PM,8.99,0.46,-3.06,0.03,0.00,0.01
8:30:28 PM,9.12,0.52,-3.23,0.03,-0.03,0.01
8:30:28 PM,8.99,0.49,-3.07,0.05,-0.01,0.01
8:30:28 PM,9.05,0.51,-2.98,0.04,-0.08,0.01
8:30:28 PM,8.97,0.48,-2.89,0.08,-0.01,0.01
8:30:28 PM,9.16,0.46,-2.86,0.06,0.01,0.01
8:30:28 PM,9.40,0.52,-2.85,0.04,-0.02,0.01
8:30:28 PM,9.00,0.47,-2.93,-0.03,-0.03,0.01
8:30:28 PM,9.11,0.47,-2.97,0.01,-0.02,0.01
8:30:29 PM,9.16,0.50,-3.22,0.01,-0.03,0.01
8:30:29 PM,8.98,0.54,-3.50,-0.05,-0.01,0.01
8:30:29 PM,8.71,0.54,-3.56,-0.01,-0.05,0.01
8:30:29 PM,8.94,0.55,-3.55,0.05,-0.00,0.01
8:30:29 PM,9.00,0.48,-3.29,-0.01,-0.06,0.01
8:30:29 PM,9.18,0.46,-3.13,0.02,-0.06,0.01
8:30:29 PM,9.21,0.45,-3.02,0.03,-0.04,0.01
8:30:29 PM,9.06,0.52,-2.72,0.04,-0.03,0.01
8:30:29 PM,9.14,0.53,-2.92,0.03,-0.00,0.01
8:30:30 PM,8.94,0.49,-2.95,0.05,0.03,0.01
8:30:30 PM,9.20,0.40,-2.68,-0.01,-0.08,0.01
8:30:30 PM,9.06,0.43,-2.94,0.01,-0.04,0.01
8:30:30 PM,9.38,0.48,-2.94,0.05,-0.02,0.01
8:30:30 PM,8.92,0.44,-3.06,-0.04,-0.00,0.01
8:30:30 PM,8.89,0.44,-3.18,-0.04,-0.03,0.01
8:30:30 PM,8.85,0.48,-3.35,0.01,-0.02,0.01
8:30:30 PM,9.04,0.48,-3.38,0.02,0.05,0.01
8:30:30 PM,8.91,0.51,-3.28,0.03,-0.04,0.01
8:30:30 PM,9.03,0.51,-3.29,-0.00,-0.01,0.01
8:30:31 PM,8.90,0.48,-3.12,0.03,-0.05,0.01
8:30:31 PM,9.22,0.48,-2.98,0.06,0.02,0.01
8:30:31 PM,9.09,0.45,-2.94,0.02,-0.03,0.01
8:30:31 PM,9.08,0.37,-2.67,-0.01,-0.07,0.01
8:30:31 PM,9.10,0.40,-2.86,0.01,0.02,0.01
8:30:31 PM,8.96,0.40,-2.95,-0.03,0.02,0.01
8:30:31 PM,9.14,0.48,-3.11,0.01,-0.03,0.01
8:30:31 PM,9.11,0.53,-3.27,0.04,-0.01,0.01
8:30:31 PM,8.92,0.46,-3.05,0.03,0.03,0.01
8:30:32 PM,8.95,0.47,-3.14,0.01,0.01,0.01
8:30:32 PM,9.13,0.45,-3.13,-0.03,-0.00,0.01
8:30:32 PM,8.96,0.53,-3.29,-0.05,-0.03,0.01
8:30:32 PM,9.09,0.44,-3.30,0.01,0.01,0.01
8:30:32 PM,8.97,0.54,-3.40,-0.01,-0.05,0.01
8:30:32 PM,8.92,0.53,-3.50,-0.02,-0.02,0.01
8:30:32 PM,8.68,0.48,-3.50,-0.01,-0.05,0.01
8:30:32 PM,8.96,0.42,-3.14,-0.01,-0.00,0.01
8:30:32 PM,8.83,0.54,-3.38,-0.03,-0.05,0.01
8:30:32 PM,8.82,0.54,-3.44,0.02,-0.01,0.01
8:30:33 PM,9.20,0.44,-2.99,0.00,-0.00,0.01
8:30:33 PM,9.17,0.46,-2.92,0.07,-0.01,0.01
8:30:33 PM,9.04,0.40,-2.81,0.01,-0.02,0.01
8:30:33 PM,9.00,0.46,-3.07,0.00,-0.02,0.01
8:30:33 PM,9.00,0.51,-3.15,0.01,-0.03,0.01
8:30:33 PM,8.99,0.43,-3.01,0.05,-0.03,0.01
8:30:33 PM,9.14,0.42,-2.96,0.04,-0.03,0.01
8:30:33 PM,9.18,0.47,-2.93,0.04,0.04,0.01
8:30:33 PM,9.14,0.48,-2.79,0.08,-0.02,0.01
8:30:34 PM,9.31,0.46,-2.83,0.01,-0.02,0.01
8:30:34 PM,8.99,0.54,-2.94,0.04,-0.02,0.01
8:30:34 PM,8.84,0.60,-3.37,0.02,-0.01,0.01
8:30:34 PM,8.96,0.45,-3.32,-0.05,-0.06,0.01
8:30:34 PM,9.14,0.39,-3.08,-0.02,-0.03,0.01
8:30:34 PM,9.04,0.37,-3.08,-0.01,-0.06,0.01
8:30:34 PM,8.84,0.53,-3.56,-0.00,0.08,0.01
8:30:34 PM,8.75,0.56,-3.46,-0.02,-0.04,0.01
8:30:34 PM,8.94,0.46,-3.34,0.02,-0.02,0.01
8:30:35 PM,8.99,0.40,-3.34,-0.01,0.01,0.01
8:30:35 PM,9.02,0.51,-3.26,0.05,-0.02,0.01
8:30:35 PM,9.01,0.54,-3.32,0.03,0.01,0.01
8:30:35 PM,8.83,0.59,-3.33,-0.02,0.01,0.01
8:30:35 PM,8.86,0.62,-3.40,-0.05,-0.06,0.01
8:30:35 PM,10.17,0.41,-2.97,0.16,-0.01,0.01
8:30:35 PM,8.85,0.54,-3.01,0.04,-0.06,0.01
8:30:35 PM,9.29,0.48,-3.09,-0.00,-0.02,0.01
8:30:35 PM,8.79,0.42,-3.09,-0.03,-0.03,0.01
8:30:35 PM,9.36,0.47,-2.98,0.05,-0.01,0.01
8:30:36 PM,8.92,0.55,-3.28,-0.04,-0.02,0.01
8:30:36 PM,8.91,0.47,-3.28,-0.01,-0.04,0.01
8:30:36 PM,8.82,0.60,-3.43,-0.02,0.04,0.01
8:30:36 PM,9.15,0.50,-3.23,-0.01,-0.03,0.01
8:30:36 PM,8.81,0.54,-3.27,-0.03,-0.05,0.01
8:30:36 PM,8.95,0.60,-3.38,0.05,-0.01,0.01
8:30:36 PM,8.86,0.52,-3.11,0.10,0.01,0.01
8:30:36 PM,9.20,0.45,-2.62,0.11,-0.07,0.01
8:30:36 PM,8.94,0.59,-2.96,0.04,0.02,0.01
8:30:37 PM,9.11,0.46,-3.03,-0.01,0.02,0.01
8:30:37 PM,8.84,0.47,-3.24,-0.03,-0.02,0.01
8:30:37 PM,8.91,0.50,-3.37,-0.07,-0.04,0.01
8:30:37 PM,8.81,0.45,-3.34,-0.03,-0.05,0.01
8:30:37 PM,9.01,0.51,-3.32,0.01,-0.00,0.01
8:30:37 PM,8.81,0.60,-3.51,-0.00,0.01,0.01
8:30:37 PM,8.75,0.59,-3.54,-0.02,-0.00,0.01
8:30:37 PM,8.83,0.51,-3.36,0.04,-0.04,0.01
8:30:37 PM,8.83,0.55,-3.33,-0.01,-0.01,0.01
8:30:37 PM,9.09,0.52,-3.22,0.03,-0.06,0.01
8:30:38 PM,8.86,0.48,-3.15,-0.03,-0.02,0.01
8:30:38 PM,8.80,0.51,-3.34,0.02,-0.00,0.01
8:30:38 PM,9.03,0.47,-3.15,-0.02,-0.06,0.01
8:30:38 PM,8.91,0.41,-3.33,0.02,-0.05,0.01
8:30:38 PM,9.01,0.55,-3.33,0.01,0.05,0.01
8:30:38 PM,9.22,0.55,-3.17,0.02,0.05,0.01
8:30:38 PM,9.00,0.50,-3.26,0.02,0.00,0.01
8:30:38 PM,9.09,0.46,-3.14,0.00,-0.01,0.01
8:30:38 PM,8.96,0.52,-3.06,0.01,0.01,0.01
8:30:39 PM,9.04,0.41,-2.94,0.00,-0.04,0.01
8:30:39 PM,9.06,0.49,-2.99,0.04,-0.04,0.01
8:30:39 PM,8.87,0.51,-3.06,0.04,-0.00,0.01
8:30:39 PM,9.19,0.57,-3.03,0.03,0.01,0.01
8:30:39 PM,9.03,0.59,-3.14,-0.01,-0.04,0.01
8:30:39 PM,8.92,0.49,-3.16,-0.00,0.01,0.01
8:30:39 PM,8.93,0.56,-3.20,-0.01,-0.01,0.01
8:30:39 PM,8.97,0.50,-3.28,-0.01,0.03,0.01
8:30:39 PM,9.17,0.50,-3.17,0.02,-0.03,0.01
8:30:39 PM,9.13,0.53,-3.24,0.03,0.03,0.01
8:30:40 PM,9.09,0.45,-3.12,0.04,0.00,0.01
8:30:40 PM,8.94,0.54,-3.23,0.03,0.01,0.01
8:30:40 PM,9.10,0.48,-3.05,0.00,0.01,0.01
8:30:40 PM,8.75,0.45,-2.99,-0.01,-0.06,0.01
8:30:40 PM,8.87,0.51,-3.05,0.00,0.03,0.01
8:30:40 PM,9.05,0.57,-3.17,-0.03,-0.03,0.01
8:30:40 PM,8.84,0.57,-3.38,-0.01,0.05,0.01
8:30:40 PM,8.90,0.61,-3.29,0.02,0.00,0.01
8:30:40 PM,8.93,0.62,-3.32,0.05,0.03,0.01
8:30:41 PM,9.07,0.49,-3.15,0.02,-0.06,0.01
8:30:41 PM,8.89,0.50,-3.09,0.01,0.01,0.01
8:30:41 PM,9.22,0.46,-2.75,0.05,-0.04,0.01
8:30:41 PM,8.93,0.53,-2.77,0.02,-0.01,0.01
8:30:41 PM,8.97,0.55,-2.98,0.02,0.00,0.01
8:30:41 PM,9.07,0.52,-2.98,0.00,-0.03,0.01
8:30:41 PM,8.90,0.60,-3.28,0.01,-0.03,0.01
8:30:41 PM,9.12,0.52,-3.11,0.01,-0.07,0.01
8:30:41 PM,9.05,0.43,-2.95,0.02,-0.03,0.01
8:30:41 PM,9.15,0.47,-2.97,-0.01,-0.05,0.01
8:30:42 PM,9.10,0.51,-3.26,-0.03,-0.02,0.01
8:30:42 PM,9.15,0.57,-3.28,0.02,0.01,0.01
8:30:42 PM,9.02,0.44,-3.08,0.00,-0.06,0.01
8:30:42 PM,8.93,0.48,-3.12,-0.01,-0.03,0.01
8:30:42 PM,8.93,0.52,-3.26,-0.01,-0.02,0.01
8:30:42 PM,9.10,0.56,-3.44,0.01,-0.02,0.01
8:30:42 PM,8.91,0.51,-3.31,-0.02,-0.01,0.01
8:30:42 PM,9.03,0.58,-3.56,-0.01,0.02,0.01
8:30:42 PM,9.13,0.59,-3.64,0.00,-0.01,0.01
8:30:43 PM,8.82,0.59,-3.48,0.07,0.01,0.01
8:30:43 PM,9.21,0.43,-2.85,0.06,-0.06,0.01
8:30:43 PM,8.88,0.62,-3.18,0.05,-0.03,0.01
8:30:43 PM,8.87,0.51,-3.08,-0.02,-0.06,0.01
8:30:43 PM,9.02,0.54,-3.19,-0.02,-0.01,0.01
8:30:43 PM,8.91,0.60,-3.13,0.02,-0.04,0.01
8:30:43 PM,8.90,0.52,-3.13,0.00,0.03,0.01
8:30:43 PM,9.04,0.52,-3.14,0.03,-0.04,0.01
8:30:43 PM,8.79,0.52,-3.19,0.02,0.01,0.01
8:30:43 PM,9.17,0.53,-3.01,0.00,-0.01,0.01
8:30:44 PM,9.08,0.48,-2.99,0.01,0.01,0.01
8:30:44 PM,8.96,0.49,-3.03,0.02,0.03,0.01
8:30:44 PM,9.17,0.53,-3.05,-0.02,-0.03,0.01
8:30:44 PM,9.19,0.51,-3.06,0.00,-0.01,0.01
8:30:44 PM,9.09,0.46,-3.16,0.02,-0.02,0.01
8:30:44 PM,8.84,0.40,-3.07,0.00,-0.03,0.01
8:30:44 PM,9.07,0.57,-3.24,0.02,0.01,0.01
8:30:44 PM,9.00,0.48,-3.18,0.00,-0.03,0.01
8:30:44 PM,9.00,0.57,-3.17,0.00,-0.04,0.01
8:30:45 PM,9.04,0.52,-3.13,0.02,-0.10,0.01
8:30:45 PM,8.73,0.51,-3.36,-0.01,0.04,0.01
8:30:45 PM,9.26,0.30,-3.00,0.03,-0.05,0.01
8:30:45 PM,8.86,0.53,-3.19,-0.05,-0.03,0.01
8:30:45 PM,8.80,0.54,-3.39,0.00,-0.01,0.01
8:30:45 PM,8.93,0.49,-3.14,0.02,-0.02,0.01
8:30:45 PM,8.91,0.51,-2.94,-0.00,-0.06,0.01
8:30:45 PM,9.07,0.57,-3.10,0.02,-0.01,0.01
8:30:45 PM,9.10,0.56,-3.23,0.03,-0.02,0.01
8:30:45 PM,8.88,0.61,-3.35,0.05,-0.01,0.01
8:30:46 PM,9.03,0.60,-3.19,0.06,-0.02,0.01
8:30:46 PM,9.17,0.57,-3.05,0.05,-0.07,0.01
8:30:46 PM,8.91,0.59,-3.08,0.00,-0.01,0.01
8:30:46 PM,9.22,0.53,-3.02,0.04,0.00,0.01
8:30:46 PM,9.06,0.51,-2.92,0.02,-0.06,0.01
8:30:46 PM,8.92,0.56,-3.06,0.04,-0.00,0.01
8:30:46 PM,9.04,0.64,-3.12,0.01,-0.01,0.01
8:30:46 PM,8.93,0.54,-3.29,0.00,-0.00,0.01
8:30:46 PM,8.96,0.56,-3.14,0.03,-0.01,0.01
8:30:47 PM,9.01,0.49,-3.20,-0.01,-0.01,0.01
8:30:47 PM,8.90,0.55,-3.16,-0.01,-0.01,0.01
8:30:47 PM,8.94,0.60,-3.22,-0.01,0.01,0.01
8:30:47 PM,8.74,0.61,-3.43,-0.04,-0.03,0.01
8:30:47 PM,8.97,0.53,-3.20,-0.01,-0.01,0.01
8:30:47 PM,8.88,0.65,-3.39,0.03,0.03,0.01
8:30:47 PM,9.12,0.58,-3.29,0.03,-0.01,0.01
8:30:47 PM,8.95,0.53,-3.26,0.04,0.02,0.01
8:30:47 PM,8.88,0.54,-3.14,-0.01,0.02,0.01
8:30:48 PM,8.91,0.54,-3.23,-0.01,-0.01,0.01
8:30:48 PM,8.87,0.55,-3.28,-0.00,-0.01,0.01
8:30:48 PM,8.93,0.64,-3.28,0.02,-0.04,0.01
8:30:48 PM,8.87,0.54,-3.28,0.02,-0.01,0.01
8:30:48 PM,8.90,0.56,-3.26,0.00,-0.03,0.01
8:30:48 PM,8.97,0.57,-3.13,0.02,-0.00,0.01
8:30:48 PM,8.95,0.56,-3.09,0.00,-0.03,0.01
8:30:48 PM,9.03,0.48,-3.09,-0.01,-0.03,0.01
8:30:48 PM,8.84,0.53,-3.22,-0.02,-0.02,0.01
8:30:48 PM,8.99,0.61,-3.25,-0.01,-0.01,0.01
8:30:49 PM,8.55,0.62,-3.17,-0.00,0.02,0.01
8:30:49 PM,8.89,0.47,-3.27,0.00,-0.01,0.01
8:30:49 PM,9.05,0.57,-3.36,0.00,0.04,0.01
8:30:49 PM,8.96,0.51,-3.26,0.01,-0.01,0.01
8:30:49 PM,9.38,0.69,-3.31,0.04,-0.05,0.01
8:30:49 PM,9.00,0.62,-2.30,0.01,0.30,0.01
8:30:49 PM,8.67,0.51,-3.51,0.02,-0.01,0.01
8:30:49 PM,9.33,0.49,-2.85,-0.02,-0.04,0.01
8:30:49 PM,8.65,0.47,-3.18,-0.01,-0.03,0.01
8:30:50 PM,8.81,0.58,-3.41,0.01,-0.01,0.01
8:30:50 PM,8.84,0.63,-3.32,0.02,-0.00,0.01
8:30:50 PM,8.87,0.47,-3.18,0.02,-0.03,0.01
8:30:50 PM,8.82,0.54,-3.25,0.02,-0.01,0.01
8:30:50 PM,8.86,0.55,-3.32,-0.01,0.03,0.01
8:30:50 PM,9.15,0.43,-2.89,0.03,-0.05,0.01
8:30:50 PM,9.10,0.49,-3.02,0.02,0.03,0.01
8:30:50 PM,9.04,0.52,-2.93,0.01,0.00,0.01
8:30:50 PM,9.21,0.55,-2.83,0.04,-0.05,0.01
8:30:50 PM,9.08,0.46,-2.77,0.04,-0.01,0.01
8:30:51 PM,8.86,0.52,-3.17,-0.08,-0.07,0.01
8:30:51 PM,8.79,0.50,-3.25,0.01,-0.01,0.01
8:30:51 PM,9.09,0.51,-3.32,-0.01,-0.03,0.01
8:30:51 PM,8.85,0.51,-3.37,-0.01,0.01,0.01
8:30:51 PM,8.91,0.53,-3.28,0.01,0.00,0.01
8:30:51 PM,9.08,0.47,-2.96,0.04,-0.02,0.01
8:30:51 PM,9.05,0.52,-3.11,0.03,0.00,0.01
8:30:51 PM,9.00,0.52,-3.05,0.01,0.03,0.01
8:30:51 PM,9.18,0.48,-2.78,0.03,0.00,0.01
8:30:52 PM,9.14,0.52,-2.60,0.04,-0.06,0.01
8:30:52 PM,8.86,0.51,-2.99,0.00,-0.05,0.01
8:30:52 PM,8.91,0.51,-2.97,0.02,-0.00,0.01
8:30:52 PM,8.83,0.59,-3.25,-0.00,0.05,0.01
8:30:52 PM,9.08,0.55,-3.19,-0.01,-0.04,0.01
8:30:52 PM,9.03,0.48,-3.02,0.03,-0.07,0.01
8:30:52 PM,8.92,0.55,-3.11,0.04,0.02,0.01
8:30:52 PM,9.05,0.51,-3.22,0.05,-0.02,0.01
8:30:52 PM,9.00,0.54,-3.14,0.00,-0.01,0.01
8:30:52 PM,8.94,0.49,-3.15,-0.01,-0.01,0.01
8:30:53 PM,8.95,0.49,-3.15,-0.01,-0.03,0.01
8:30:53 PM,8.96,0.51,-3.11,0.00,-0.01,0.01
8:30:53 PM,9.03,0.50,-3.20,0.01,0.01,0.01
8:30:53 PM,8.96,0.59,-3.39,0.02,0.01,0.01
8:30:53 PM,9.07,0.37,-2.98,-0.01,-0.09,0.01
8:30:53 PM,9.01,0.53,-3.09,0.05,-0.02,0.01
8:30:53 PM,9.11,0.57,-3.34,-0.01,-0.01,0.01
8:30:53 PM,8.93,0.59,-3.14,-0.01,0.04,0.01
8:30:53 PM,8.90,0.58,-3.28,-0.03,-0.05,0.01
8:30:54 PM,8.90,0.57,-3.35,0.01,-0.02,0.01
8:30:54 PM,8.81,0.45,-3.06,0.01,0.05,0.01
8:30:54 PM,8.99,0.62,-3.20,0.01,-0.04,0.01
8:30:54 PM,9.35,0.43,-3.01,0.01,-0.04,0.01
8:30:54 PM,8.76,0.44,-3.06,-0.02,-0.01,0.01
8:30:54 PM,9.07,0.42,-3.15,-0.01,-0.11,0.01
8:30:54 PM,8.94,0.54,-3.06,-0.01,-0.00,0.01
8:30:54 PM,8.89,0.55,-3.11,0.01,0.08,0.01
8:30:54 PM,9.10,0.50,-2.71,-0.01,-0.04,0.01
8:30:54 PM,9.24,0.49,-2.94,-0.00,-0.01,0.01
8:30:55 PM,8.90,0.53,-3.38,-0.02,-0.04,0.01
8:30:55 PM,9.02,0.51,-3.18,0.02,-0.02,0.01
8:30:55 PM,8.99,0.45,-3.18,0.01,-0.02,0.01
8:30:55 PM,9.18,0.54,-3.10,-0.01,-0.00,0.01
8:30:55 PM,8.79,0.52,-3.23,-0.01,-0.02,0.01
8:30:55 PM,8.85,0.52,-3.19,-0.03,-0.02,0.01
8:30:55 PM,9.00,0.48,-3.10,0.00,-0.02,0.01
8:30:55 PM,8.83,0.52,-3.11,0.01,-0.01,0.01
8:30:55 PM,8.84,0.51,-3.08,0.00,-0.06,0.01
8:30:56 PM,8.99,0.52,-3.24,-0.03,0.01,0.01
8:30:56 PM,9.18,0.59,-3.32,-0.00,-0.00,0.01
8:30:56 PM,8.83,0.51,-3.18,0.02,0.01,0.01
8:30:56 PM,8.91,0.53,-3.08,0.02,-0.05,0.01
8:30:56 PM,8.85,0.56,-3.14,0.00,0.02,0.01
8:30:56 PM,9.06,0.47,-3.05,0.01,-0.02,0.01
8:30:56 PM,9.01,0.50,-3.02,0.03,-0.06,0.01
8:30:56 PM,9.02,0.55,-3.20,0.03,0.01,0.01
8:30:56 PM,9.06,0.60,-3.25,0.01,0.01,0.01
8:30:56 PM,8.91,0.60,-3.05,0.01,-0.07,0.01
8:30:57 PM,9.21,0.49,-2.93,-0.00,-0.05,0.01
8:30:57 PM,9.22,0.47,-2.93,-0.01,-0.07,0.01
8:30:57 PM,8.70,0.53,-3.51,0.02,-0.02,0.01
8:30:57 PM,9.15,0.88,-2.91,0.03,-0.01,0.01
8:30:57 PM,8.42,0.80,-3.84,0.05,0.13,0.01
8:30:57 PM,9.09,0.65,-2.91,0.03,-0.06,0.01
8:30:57 PM,8.69,0.57,-3.24,0.01,-0.06,0.01
8:30:57 PM,9.00,0.49,-3.00,0.04,0.00,0.01
8:30:57 PM,8.84,0.51,-3.19,0.01,0.02,0.01
8:30:58 PM,8.96,0.61,-2.86,0.02,-0.02,0.01
8:30:58 PM,8.99,0.66,-2.95,0.03,-0.04,0.01
8:30:58 PM,8.90,0.58,-3.05,0.02,-0.03,0.01
8:30:58 PM,9.03,0.47,-3.14,-0.01,0.04,0.01
8:30:58 PM,9.05,0.53,-2.97,0.02,-0.07,0.01
8:30:58 PM,9.02,0.43,-3.06,0.01,0.02,0.01
8:30:58 PM,9.30,0.46,-2.96,0.01,-0.01,0.01
8:30:58 PM,8.97,0.58,-3.12,0.01,-0.00,0.01
8:30:58 PM,8.86,0.54,-3.18,-0.01,0.01,0.01
8:30:58 PM,9.02,0.51,-3.00,-0.00,-0.05,0.01
8:30:59 PM,9.18,0.47,-3.02,0.01,-0.01,0.01
8:30:59 PM,9.06,0.50,-3.06,0.01,-0.00,0.01
8:30:59 PM,9.18,0.38,-2.97,0.01,0.00,0.01
8:30:59 PM,8.89,0.50,-3.08,0.01,-0.00,0.01
8:30:59 PM,8.79,0.56,-3.18,0.01,-0.02,0.01
8:30:59 PM,8.97,0.54,-3.03,0.00,-0.03,0.01
8:30:59 PM,9.14,0.44,-2.84,0.01,-0.05,0.01
8:30:59 PM,9.02,0.57,-3.10,0.04,-0.02,0.01
8:30:59 PM,8.94,0.59,-3.01,0.02,0.06,0.01
8:31:00 PM,9.13,0.62,-3.03,-0.04,0.01,0.01
8:31:00 PM,9.09,0.51,-3.11,-0.03,-0.02,0.01
8:31:00 PM,9.05,0.55,-3.07,0.02,-0.01,0.01
8:31:00 PM,9.04,0.44,-2.80,0.01,-0.03,0.01
8:31:00 PM,9.17,0.54,-2.81,0.03,-0.10,0.01
8:31:00 PM,8.97,0.55,-3.03,-0.02,-0.06,0.01
8:31:00 PM,9.03,0.53,-3.01,-0.02,-0.01,0.01
8:31:00 PM,8.97,0.60,-3.11,-0.03,-0.05,0.01
8:31:00 PM,8.78,0.49,-3.09,0.02,-0.02,0.01
8:31:01 PM,9.35,0.48,-2.89,0.03,0.00,0.01
8:31:01 PM,9.07,0.51,-3.00,0.02,-0.00,0.01
8:31:01 PM,9.05,0.55,-2.96,0.03,0.04,0.01
8:31:01 PM,9.04,0.59,-2.87,0.02,-0.03,0.01
8:31:01 PM,9.21,0.53,-2.80,0.01,0.01,0.01
8:31:01 PM,9.11,0.49,-2.89,-0.01,-0.01,0.01
8:31:01 PM,8.86,0.57,-3.30,-0.02,0.03,0.01
8:31:01 PM,9.22,0.52,-2.93,0.03,-0.05,0.01
8:31:01 PM,8.97,0.48,-2.90,-0.04,-0.07,0.01
8:31:01 PM,9.02,0.42,-3.04,0.01,0.06,0.01
8:31:02 PM,9.10,0.49,-3.05,-0.00,-0.04,0.01
8:31:02 PM,8.94,0.54,-3.14,-0.02,-0.01,0.01
8:31:02 PM,8.74,0.61,-3.34,-0.01,0.00,0.01
8:31:02 PM,8.95,0.57,-3.27,-0.02,-0.00,0.01
8:31:02 PM,8.96,0.57,-2.99,0.03,-0.07,0.01
8:31:02 PM,8.81,0.60,-3.19,0.07,-0.00,0.01
8:31:02 PM,8.77,0.55,-3.14,0.01,-0.06,0.01
8:31:02 PM,9.38,0.29,-2.87,-0.09,-0.09,0.01
8:31:02 PM,9.02,0.47,-3.14,0.02,0.03,0.01
8:31:03 PM,9.11,0.46,-3.00,-0.00,-0.03,0.01
8:31:03 PM,9.01,0.41,-2.86,-0.01,0.02,0.01
8:31:03 PM,9.21,0.33,-2.73,-0.03,-0.03,0.01
8:31:03 PM,9.17,0.41,-2.95,-0.00,-0.03,0.01
8:31:03 PM,8.96,0.55,-3.18,-0.02,0.03,0.01
8:31:03 PM,9.24,0.52,-3.13,0.02,-0.05,0.01
8:31:03 PM,8.91,0.55,-3.02,0.04,-0.06,0.01
8:31:03 PM,9.03,0.53,-3.11,0.01,0.02,0.01
8:31:03 PM,9.11,0.51,-3.09,-0.02,-0.01,0.01
8:31:03 PM,8.83,0.58,-3.24,-0.03,-0.01,0.01
8:31:04 PM,8.72,0.61,-3.31,-0.02,0.02,0.01
8:31:04 PM,8.92,0.54,-3.22,0.02,-0.02,0.01
8:31:04 PM,9.05,0.46,-3.09,-0.01,-0.07,0.01
8:31:04 PM,8.94,0.54,-3.06,-0.02,0.01,0.01
8:31:04 PM,8.76,0.55,-3.28,-0.02,-0.07,0.01
8:31:04 PM,8.84,0.51,-3.10,0.02,-0.04,0.01
8:31:04 PM,8.79,0.48,-3.04,-0.01,-0.00,0.01
8:31:04 PM,9.10,0.48,-2.99,-0.01,-0.04,0.01
8:31:04 PM,8.83,0.52,-3.13,-0.01,0.02,0.01
8:31:05 PM,8.93,0.54,-3.03,-0.02,0.03,0.01
8:31:05 PM,9.12,0.62,-3.25,-0.02,-0.02,0.01
8:31:05 PM,8.93,0.58,-3.18,-0.02,-0.05,0.01
8:31:05 PM,9.13,0.62,-2.99,0.01,-0.03,0.01
8:31:05 PM,8.99,0.58,-3.10,-0.03,-0.02,0.01
8:31:05 PM,8.90,0.48,-3.18,0.00,-0.03,0.01
8:31:05 PM,8.89,0.56,-3.25,-0.01,-0.04,0.01
8:31:05 PM,9.09,0.43,-2.83,-0.01,-0.03,0.01
8:31:05 PM,9.91,0.47,-2.48,-0.30,-1.03,0.01
8:31:05 PM,8.86,0.37,-3.15,-0.03,0.16,0.01
8:31:06 PM,9.13,0.40,-3.13,-0.02,-0.09,0.01
8:31:06 PM,8.89,0.48,-3.09,0.04,-0.10,0.01
8:31:06 PM,8.92,0.47,-3.16,0.04,0.03,0.01
8:31:06 PM,9.09,0.50,-3.18,0.03,0.02,0.01
8:31:06 PM,8.97,0.40,-3.17,-0.01,0.04,0.01
8:31:06 PM,8.89,0.53,-3.26,0.04,-0.06,0.01
8:31:06 PM,8.96,0.48,-3.04,0.04,-0.09,0.01
8:31:06 PM,9.07,0.40,-2.90,0.02,0.01,0.01
8:31:06 PM,9.08,0.45,-3.07,-0.01,-0.00,0.01
8:31:07 PM,8.98,0.52,-3.02,0.04,-0.00,0.01
8:31:07 PM,9.09,0.49,-3.00,0.06,-0.07,0.01
8:31:07 PM,9.19,0.51,-2.94,0.04,-0.01,0.01
8:31:07 PM,9.13,0.46,-2.79,0.02,-0.08,0.01
8:31:07 PM,9.21,0.41,-2.92,-0.01,-0.05,0.01
8:31:07 PM,9.05,0.47,-3.10,0.02,-0.03,0.01
8:31:07 PM,8.64,0.57,-3.42,-0.02,0.06,0.01
8:31:07 PM,9.23,0.44,-3.20,-0.02,-0.07,0.01
8:31:07 PM,8.75,0.52,-3.33,-0.03,-0.02,0.01
8:31:07 PM,9.03,0.45,-3.17,-0.03,0.02,0.01
8:31:08 PM,9.03,0.51,-3.45,0.02,-0.05,0.01
8:31:08 PM,8.90,0.45,-3.26,0.01,-0.01,0.01
8:31:08 PM,8.99,0.49,-3.28,0.03,-0.02,0.01
8:31:08 PM,9.04,0.50,-3.27,0.06,0.06,0.01
8:31:08 PM,8.86,0.42,-3.09,0.02,0.01,0.01
8:31:08 PM,9.21,0.33,-2.87,-0.01,-0.10,0.01
8:31:08 PM,9.10,0.50,-3.02,0.04,-0.06,0.01
8:31:08 PM,8.79,0.45,-3.11,0.01,-0.03,0.01
8:31:08 PM,8.99,0.45,-3.18,-0.00,0.04,0.01
8:31:09 PM,8.99,0.46,-3.17,0.01,-0.02,0.01
8:31:09 PM,8.88,0.46,-2.96,0.05,-0.03,0.01
8:31:09 PM,9.00,0.49,-3.05,-0.01,-0.02,0.01
8:31:09 PM,8.91,0.41,-2.99,-0.01,-0.02,0.01
8:31:09 PM,9.18,0.31,-2.96,0.01,-0.06,0.01
8:31:09 PM,9.14,0.38,-2.96,0.04,-0.04,0.01
8:31:09 PM,9.06,0.39,-2.92,0.01,-0.00,0.01
8:31:09 PM,8.98,0.45,-3.04,-0.01,0.00,0.01
8:31:09 PM,9.14,0.43,-2.99,-0.00,-0.08,0.01
8:31:09 PM,9.10,0.46,-2.98,0.00,0.01,0.01
8:31:10 PM,8.93,0.41,-2.91,-0.01,-0.06,0.01
8:31:10 PM,9.21,0.43,-3.04,0.01,-0.02,0.01
