Timestamp,Accel X,Accel Y,Accel Z,Gyro X,Gyro Y,Gyro Z
7:23:48 PM,8.66,-0.92,1.97,0.01,0.02,0.01
7:23:48 PM,8.60,-0.90,2.00,0.02,-0.01,0.01
7:23:48 PM,8.63,-0.88,1.99,-0.00,0.03,0.01
7:23:48 PM,8.57,-0.89,2.03,-0.00,-0.05,0.01
7:23:48 PM,8.48,-0.90,2.03,-0.00,-0.02,0.01
7:23:48 PM,8.65,-0.89,2.02,0.01,-0.02,0.01
7:23:48 PM,8.60,-0.88,2.01,0.00,-0.01,0.01
7:23:49 PM,8.58,-0.93,2.03,0.00,-0.02,0.01
7:23:49 PM,8.61,-0.89,2.07,0.01,-0.01,0.01
7:23:49 PM,8.48,-0.89,2.10,0.01,-0.03,0.01
7:23:49 PM,8.54,-0.91,2.14,0.01,0.02,0.01
7:23:49 PM,8.54,-0.91,2.07,0.02,0.00,0.01
7:23:49 PM,8.50,-0.93,2.07,0.04,-0.10,0.01
7:23:49 PM,8.76,-0.89,1.91,0.03,-0.06,0.01
7:23:49 PM,8.50,-0.90,1.89,0.01,-0.10,0.01
7:23:49 PM,8.50,-0.92,1.91,0.01,0.04,0.01
7:23:49 PM,8.82,-0.85,1.79,0.02,0.05,0.01
7:23:50 PM,8.62,-0.90,1.80,0.02,-0.01,0.01
7:23:50 PM,8.64,-0.93,1.65,0.04,-0.08,0.01
7:23:50 PM,8.71,-0.85,1.67,0.04,-0.11,0.01
7:23:50 PM,8.65,-0.89,1.70,0.00,-0.08,0.01
7:23:50 PM,8.60,-0.87,1.67,0.00,-0.14,0.01
7:23:50 PM,8.68,-0.86,1.56,0.02,-0.10,0.01
7:23:50 PM,8.64,-0.93,1.72,0.04,0.03,0.01
7:23:50 PM,8.83,-0.87,1.51,0.03,0.02,0.01
7:23:50 PM,8.79,-0.87,1.47,0.01,-0.03,0.01
7:23:51 PM,8.76,-0.87,1.57,0.01,0.01,0.01
7:23:51 PM,8.77,-0.87,1.47,0.04,0.01,0.01
7:23:51 PM,8.77,-0.83,1.54,-0.01,-0.02,0.01
7:23:51 PM,8.71,-0.85,1.59,0.01,0.04,0.01
7:23:51 PM,8.69,-0.87,1.51,0.01,0.03,0.01
7:23:51 PM,8.76,-0.90,1.42,0.00,-0.03,0.01
7:23:51 PM,8.85,-0.90,1.47,-0.01,-0.03,0.01
7:23:51 PM,8.77,-0.86,1.47,0.02,-0.05,0.01
7:23:51 PM,8.64,-0.92,1.49,-0.01,-0.06,0.01
7:23:51 PM,8.67,-0.94,1.62,0.01,-0.01,0.01
7:23:52 PM,8.72,-0.86,1.53,0.04,0.04,0.01
7:23:52 PM,8.74,-0.92,1.50,0.03,-0.03,0.01
7:23:52 PM,8.67,-0.90,1.49,0.01,-0.05,0.01
7:23:52 PM,8.63,-0.86,1.59,-0.00,-0.01,0.01
7:23:52 PM,8.81,-0.88,1.53,-0.00,-0.06,0.01
7:23:52 PM,8.73,-0.86,1.53,-0.00,-0.08,0.01
7:23:52 PM,8.71,-0.88,1.59,-0.01,0.00,0.01
7:23:52 PM,8.62,-0.93,1.60,0.03,0.00,0.01
7:23:52 PM,8.69,-0.90,1.62,0.02,-0.05,0.01
7:23:53 PM,8.72,-0.86,1.55,0.02,-0.05,0.01
7:23:53 PM,8.56,-0.95,1.63,0.01,-0.02,0.01
7:23:53 PM,8.72,-0.91,1.58,0.01,0.03,0.01
7:23:53 PM,8.82,-0.92,1.51,0.01,0.00,0.01
7:23:53 PM,8.69,-0.89,1.53,0.01,0.01,0.01
7:23:53 PM,8.73,-0.84,1.60,0.00,-0.05,0.01
7:23:53 PM,8.74,-0.87,1.49,0.02,-0.06,0.01
7:23:53 PM,8.71,-0.87,1.54,0.01,-0.08,0.01
7:23:53 PM,8.76,-0.87,1.59,0.00,-0.09,0.01
7:23:54 PM,8.88,-0.86,1.39,-0.01,-0.03,0.01
7:23:54 PM,8.77,-0.94,1.39,-0.01,-0.04,0.01
7:23:54 PM,8.78,-0.86,1.41,-0.00,-0.02,0.01
7:23:54 PM,8.79,-0.90,1.50,0.02,-0.06,0.01
7:23:54 PM,8.68,-0.88,1.42,0.03,-0.04,0.01
7:23:54 PM,8.76,-0.92,1.35,0.04,-0.04,0.01
7:23:54 PM,8.80,-0.85,1.35,0.01,-0.04,0.01
7:23:54 PM,8.61,-0.88,1.46,0.00,-0.04,0.01
7:23:54 PM,8.65,-0.90,1.46,0.01,-0.02,0.01
7:23:54 PM,8.69,-0.84,1.47,0.01,-0.02,0.01
7:23:55 PM,8.68,-0.90,1.50,0.02,0.02,0.01
7:23:55 PM,8.74,-0.85,1.49,0.02,0.04,0.01
7:23:55 PM,8.76,-0.88,1.44,0.00,-0.08,0.01
7:23:55 PM,8.83,-0.84,1.40,-0.00,-0.04,0.01
7:23:55 PM,8.72,-0.84,1.46,-0.01,-0.09,0.01
7:23:55 PM,8.66,-0.85,1.53,-0.00,-0.02,0.01
7:23:55 PM,8.81,-0.82,1.47,0.02,0.01,0.01
7:23:55 PM,8.80,-0.90,1.47,0.02,0.06,0.01
7:23:55 PM,8.68,-0.88,1.55,0.03,-0.04,0.01
7:23:56 PM,8.80,-0.81,1.39,-0.02,-0.06,0.01
7:23:56 PM,8.72,-0.81,1.46,0.00,0.06,0.01
7:23:56 PM,8.75,-0.85,1.50,0.04,-0.10,0.01
7:23:56 PM,8.79,-0.86,1.34,0.03,0.07,0.01
7:23:56 PM,8.85,-0.90,1.35,0.02,0.00,0.01
7:23:56 PM,8.75,-0.92,1.52,0.03,-0.02,0.01
7:23:56 PM,8.82,-0.83,1.50,0.05,-0.01,0.01
7:23:56 PM,8.77,-0.86,1.40,0.02,0.04,0.01
7:23:56 PM,8.83,-0.85,1.47,-0.00,-0.06,0.01
7:23:56 PM,8.62,-0.86,1.59,0.02,0.04,0.01
7:23:57 PM,8.88,-0.86,1.55,0.03,-0.04,0.01
7:23:57 PM,8.79,-0.82,1.47,0.01,-0.05,0.01
7:23:57 PM,8.76,-0.90,1.46,0.00,-0.04,0.01
7:23:57 PM,8.78,-0.81,1.53,0.00,-0.06,0.01
7:23:57 PM,8.75,-0.85,1.49,-0.00,-0.04,0.01
7:23:57 PM,8.61,-0.87,1.53,-0.01,-0.07,0.01
7:23:57 PM,8.75,-0.84,1.55,0.00,-0.04,0.01
7:23:57 PM,8.73,-0.83,1.47,0.01,-0.05,0.01
7:23:57 PM,8.88,-0.87,1.46,0.02,-0.02,0.01
7:23:58 PM,8.70,-0.90,1.47,0.01,-0.03,0.01
7:23:58 PM,8.63,-0.91,1.58,0.02,0.01,0.01
7:23:58 PM,8.94,-0.86,1.41,0.02,-0.04,0.01
7:23:58 PM,8.88,-0.86,1.43,-0.00,-0.03,0.01
7:23:58 PM,8.78,-0.91,1.53,0.00,-0.01,0.01
7:23:58 PM,8.77,-0.86,1.51,0.02,0.00,0.01
7:23:58 PM,8.73,-0.83,1.54,0.03,0.02,0.01
7:23:58 PM,8.73,-0.88,1.49,0.02,0.02,0.01
7:23:58 PM,8.79,-0.86,1.52,0.01,0.00,0.01
7:23:58 PM,8.72,-0.91,1.54,-0.01,-0.01,0.01
7:23:59 PM,8.77,-0.87,1.52,0.00,-0.02,0.01
7:23:59 PM,8.88,-0.83,1.32,-0.01,-0.04,0.01
7:23:59 PM,8.76,-0.80,1.47,-0.02,-0.08,0.01
7:23:59 PM,8.68,-0.79,1.44,-0.01,-0.07,0.01
7:23:59 PM,8.72,-0.85,1.27,0.00,-0.08,0.01
7:23:59 PM,8.69,-0.87,1.41,-0.01,-0.03,0.01
7:23:59 PM,8.82,-0.80,1.43,0.05,0.04,0.01
7:23:59 PM,8.84,-0.80,1.35,0.05,0.06,0.01
7:23:59 PM,8.83,-0.83,1.23,-0.02,-0.05,0.01
7:24:00 PM,8.85,-0.80,1.29,-0.06,-0.20,0.01
7:24:00 PM,8.41,-0.78,1.30,-0.04,-0.08,0.01
7:24:00 PM,9.20,-0.65,1.30,-0.03,-0.03,0.01
7:24:00 PM,8.39,-0.60,1.53,0.23,0.06,0.01
7:24:00 PM,8.78,-0.64,1.15,0.05,-0.07,0.01
7:24:00 PM,9.61,-0.30,0.80,0.01,-0.45,0.01
7:24:00 PM,9.03,-0.70,0.93,0.01,0.04,0.01
7:24:00 PM,8.71,-0.68,0.99,0.05,-0.09,0.01
7:24:00 PM,9.15,-0.68,0.80,0.01,-0.03,0.01
7:24:00 PM,8.91,-0.66,0.77,0.03,0.01,0.01
7:24:01 PM,8.79,-0.74,0.98,0.06,0.03,0.01
7:24:01 PM,8.91,-0.75,0.90,0.04,0.06,0.01
7:24:01 PM,9.02,-0.73,0.71,0.02,0.03,0.01
7:24:01 PM,9.14,-1.16,-0.22,-0.14,-0.49,0.01
7:24:01 PM,10.01,-0.66,-0.08,-0.37,-0.70,0.01
7:24:01 PM,8.51,-0.69,1.75,0.02,0.05,0.01
7:24:01 PM,8.89,-0.65,0.77,0.05,0.13,0.01
7:24:01 PM,9.00,-0.72,0.81,0.03,0.04,0.01
7:24:01 PM,8.97,-0.63,0.64,-0.02,-0.12,0.01
7:24:02 PM,8.81,-0.67,0.95,-0.01,-0.05,0.01
7:24:02 PM,8.81,-0.69,0.81,-0.01,-0.13,0.01
7:24:02 PM,8.87,-0.67,0.82,-0.02,-0.07,0.01
7:24:02 PM,8.77,-0.70,0.91,-0.03,-0.09,0.01
7:24:02 PM,8.75,-0.70,1.06,0.04,-0.00,0.01
7:24:02 PM,8.83,-0.67,0.95,0.02,0.07,0.01
7:24:02 PM,8.90,-0.64,0.97,0.04,0.03,0.01
7:24:02 PM,9.00,-0.69,0.87,0.00,0.04,0.01
7:24:02 PM,9.04,-0.65,0.83,0.01,-0.03,0.01
7:24:02 PM,9.09,-0.67,0.77,-0.00,-0.05,0.01
7:24:03 PM,9.12,-0.83,1.16,0.04,0.10,0.01
7:24:03 PM,9.37,-0.68,0.61,0.07,0.14,0.01
7:24:03 PM,9.12,-0.67,0.59,-0.06,-0.14,0.01
7:24:03 PM,8.80,-0.73,1.13,-0.04,-0.09,0.01
7:24:03 PM,8.74,-0.76,1.12,-0.02,-0.01,0.01
7:24:03 PM,8.84,-0.73,1.05,0.01,-0.08,0.01
7:24:03 PM,8.80,-0.74,0.99,0.01,0.03,0.01
7:24:03 PM,8.87,-0.69,0.92,0.01,-0.03,0.01
7:24:03 PM,8.80,-0.73,1.07,0.01,0.02,0.01
7:24:04 PM,8.90,-0.71,0.98,-0.01,-0.02,0.01
7:24:04 PM,8.85,-0.74,1.11,0.01,0.00,0.01
7:24:04 PM,8.96,-0.71,1.00,0.02,-0.00,0.01
7:24:04 PM,8.91,-0.74,1.04,0.01,0.00,0.01
7:24:04 PM,8.87,-0.74,1.07,0.02,-0.03,0.01
7:24:04 PM,8.97,-0.68,1.02,0.02,0.02,0.01
7:24:04 PM,8.93,-0.72,1.01,0.02,-0.05,0.01
7:24:04 PM,8.86,-0.72,1.08,0.01,0.01,0.01
7:24:04 PM,8.87,-0.72,1.02,0.01,-0.05,0.01
7:24:04 PM,8.90,-0.72,1.07,0.02,-0.02,0.01
7:24:05 PM,8.77,-0.76,1.05,0.02,0.02,0.01
7:24:05 PM,8.86,-0.70,1.08,0.01,-0.01,0.01
7:24:05 PM,8.91,-0.68,0.97,0.02,0.01,0.01
7:24:05 PM,8.84,-0.64,1.06,0.01,-0.01,0.01
7:24:05 PM,8.86,-0.69,1.02,0.01,-0.01,0.01
7:24:05 PM,8.86,-0.70,1.08,0.00,-0.01,0.01
7:24:05 PM,8.88,-0.73,0.96,0.00,-0.00,0.01
7:24:05 PM,8.90,-0.72,1.07,0.00,-0.05,0.01
7:24:05 PM,8.84,-0.75,1.02,0.00,-0.06,0.01
7:24:06 PM,8.88,-0.74,1.10,0.01,0.00,0.01
7:24:06 PM,8.90,-0.65,1.04,0.02,-0.02,0.01
7:24:06 PM,8.90,-0.68,1.00,0.00,-0.03,0.01
7:24:06 PM,8.87,-0.73,0.99,-0.02,-0.05,0.01
7:24:06 PM,8.80,-0.71,1.11,-0.00,-0.05,0.01
7:24:06 PM,8.86,-0.74,1.03,0.01,0.01,0.01
7:24:06 PM,8.82,-0.72,1.01,0.02,-0.01,0.01
7:24:06 PM,8.90,-0.70,1.03,0.00,-0.06,0.01
7:24:06 PM,8.88,-0.75,1.03,0.01,-0.06,0.01
7:24:07 PM,8.90,-0.74,0.97,0.01,-0.05,0.01
7:24:07 PM,8.89,-0.73,1.03,0.03,0.01,0.01
7:24:07 PM,8.90,-0.71,0.98,0.02,-0.02,0.01
7:24:07 PM,8.95,-0.68,0.99,0.01,-0.03,0.01
7:24:07 PM,8.88,-0.72,1.08,-0.00,-0.02,0.01
7:24:07 PM,8.92,-0.71,1.02,0.01,0.02,0.01
7:24:07 PM,8.91,-0.75,1.02,-0.00,-0.04,0.01
7:24:07 PM,8.97,-0.75,0.96,0.00,-0.03,0.01
7:24:07 PM,8.94,-0.71,0.99,0.00,-0.00,0.01
7:24:07 PM,8.88,-0.73,1.05,0.02,-0.01,0.01
7:24:08 PM,8.92,-0.73,1.00,0.00,-0.04,0.01
7:24:08 PM,8.91,-0.74,0.99,0.01,-0.02,0.01
7:24:08 PM,8.86,-0.73,1.07,0.01,-0.03,0.01
7:24:08 PM,8.86,-0.71,1.02,0.01,-0.01,0.01
7:24:08 PM,8.94,-0.70,1.04,0.01,0.00,0.01
7:24:08 PM,8.93,-0.73,1.06,0.01,-0.03,0.01
7:24:08 PM,8.87,-0.72,0.99,0.01,-0.02,0.01
7:24:08 PM,8.98,-0.74,1.00,0.00,-0.02,0.01
7:24:08 PM,9.00,-0.76,1.02,0.03,0.03,0.01
7:24:09 PM,8.87,-0.68,1.05,0.00,0.00,0.01
7:24:09 PM,8.94,-0.73,1.00,0.01,-0.08,0.01
7:24:09 PM,8.81,-0.71,1.03,-0.00,-0.03,0.01
7:24:09 PM,8.88,-0.73,0.96,-0.02,-0.09,0.01
7:24:09 PM,8.91,-0.72,1.08,-0.01,-0.07,0.01
7:24:09 PM,8.95,-0.69,0.98,-0.01,-0.04,0.01
7:24:09 PM,8.98,-0.68,0.93,-0.01,-0.06,0.01
7:24:09 PM,8.89,-0.76,1.09,-0.01,-0.04,0.01
7:24:09 PM,8.85,-0.74,1.00,-0.00,-0.02,0.01
7:24:09 PM,8.91,-0.71,1.04,0.00,-0.04,0.01
7:24:10 PM,8.86,-0.72,1.04,0.01,-0.01,0.01
7:24:10 PM,8.89,-0.71,1.03,0.00,-0.04,0.01
7:24:10 PM,8.78,-0.67,1.10,-0.02,-0.06,0.01
7:24:10 PM,8.57,-0.70,1.24,-0.03,-0.09,0.01
7:24:10 PM,8.61,-0.63,1.25,-0.03,-0.10,0.01
7:24:10 PM,8.51,-0.68,1.33,0.03,0.03,0.01
7:24:10 PM,8.71,-0.65,1.16,0.02,0.01,0.01
7:24:10 PM,8.85,-0.71,1.08,0.01,-0.02,0.01
7:24:10 PM,8.85,-0.64,0.87,-0.04,-0.08,0.01
7:24:11 PM,8.67,-0.73,1.38,0.04,-0.03,0.01
7:24:11 PM,8.76,-0.75,1.22,0.07,0.08,0.01
7:24:11 PM,8.93,-0.72,1.07,0.06,0.09,0.01
7:24:11 PM,8.92,-0.71,0.98,0.04,0.03,0.01
7:24:11 PM,8.98,-0.72,1.04,0.00,-0.03,0.01
7:24:11 PM,8.89,-0.73,1.16,0.02,-0.02,0.01
7:24:11 PM,9.20,-0.81,1.30,0.10,0.11,0.01
7:24:11 PM,9.32,-0.67,0.57,0.05,0.03,0.01
7:24:11 PM,8.99,-0.75,0.99,0.01,-0.02,0.01
7:24:11 PM,8.88,-0.70,1.19,0.04,0.03,0.01
7:24:12 PM,8.89,-0.73,1.07,0.03,0.03,0.01
7:24:12 PM,8.92,-0.74,1.00,0.02,0.02,0.01
7:24:12 PM,8.94,-0.74,0.98,0.01,0.01,0.01
7:24:12 PM,8.90,-0.73,1.02,0.00,-0.00,0.01
7:24:12 PM,8.87,-0.74,1.09,0.01,-0.01,0.01
7:24:12 PM,8.83,-0.74,1.09,0.03,0.00,0.01
7:24:12 PM,8.86,-0.72,1.02,0.02,0.00,0.01
7:24:12 PM,8.82,-0.72,1.05,0.01,-0.02,0.01
7:24:12 PM,8.86,-0.71,1.11,0.01,-0.01,0.01
7:24:13 PM,8.86,-0.72,1.02,0.01,-0.02,0.01
7:24:13 PM,8.88,-0.71,1.10,0.01,-0.03,0.01
7:24:13 PM,8.91,-0.76,1.05,0.01,-0.02,0.01
7:24:13 PM,8.84,-0.73,1.07,0.02,0.01,0.01
7:24:13 PM,8.89,-0.71,1.07,0.01,-0.01,0.01
7:24:13 PM,8.89,-0.71,1.10,0.01,-0.01,0.01
7:24:13 PM,8.87,-0.72,1.08,0.00,-0.01,0.01
7:24:13 PM,8.93,-0.70,1.04,0.01,-0.03,0.01
7:24:13 PM,8.89,-0.69,1.07,0.01,-0.04,0.01
7:24:14 PM,8.90,-0.72,1.05,0.01,-0.03,0.01
7:24:14 PM,8.89,-0.73,1.06,0.01,-0.00,0.01
7:24:14 PM,8.92,-0.71,1.08,0.01,0.01,0.01
7:24:14 PM,8.89,-0.71,1.07,0.01,-0.01,0.01
7:24:14 PM,8.84,-0.69,1.07,0.00,-0.01,0.01
7:24:14 PM,8.86,-0.74,1.05,0.00,-0.00,0.01
7:24:14 PM,8.90,-0.73,0.97,-0.03,-0.06,0.01
7:24:14 PM,8.88,-0.67,1.02,-0.02,-0.07,0.01
7:24:14 PM,8.85,-0.76,1.00,-0.00,-0.01,0.01
7:24:14 PM,8.93,-0.72,0.96,0.01,-0.01,0.01
7:24:15 PM,8.87,-0.71,1.02,0.02,-0.03,0.01
7:24:15 PM,8.96,-0.70,0.95,0.02,-0.02,0.01
7:24:15 PM,8.94,-0.70,1.01,0.02,-0.02,0.01
7:24:15 PM,8.94,-0.72,0.97,-0.01,-0.04,0.01
7:24:15 PM,8.87,-0.70,1.01,0.01,-0.01,0.01
7:24:15 PM,8.86,-0.65,1.04,0.01,-0.01,0.01
7:24:16 PM,8.87,-0.71,1.02,-0.01,-0.01,0.01
7:24:16 PM,8.86,-0.72,0.98,0.01,-0.01,0.01
7:24:16 PM,8.91,-0.72,1.05,0.01,-0.06,0.01
7:24:18 PM,8.94,-0.68,0.98,0.01,-0.05,0.01
7:24:18 PM,8.88,-0.66,1.02,0.01,-0.03,0.01
7:24:18 PM,8.85,-0.68,1.03,0.00,-0.00,0.01
7:24:18 PM,8.88,-0.71,1.09,0.02,0.00,0.01
7:24:18 PM,8.95,-0.68,1.02,0.04,0.01,0.01
7:24:18 PM,8.96,-0.69,1.07,0.04,0.02,0.01
7:24:18 PM,9.00,-0.72,0.90,0.02,0.01,0.01
7:24:18 PM,8.92,-0.74,1.02,0.01,0.01,0.01
7:24:18 PM,8.92,-0.75,0.95,0.01,0.02,0.01
7:24:18 PM,8.73,-0.77,1.15,0.03,0.00,0.01
7:24:18 PM,8.91,-0.76,0.98,0.03,0.03,0.01
7:24:18 PM,8.97,-0.75,0.99,0.02,0.02,0.01
7:24:18 PM,8.88,-0.75,1.01,0.01,0.01,0.01
7:24:18 PM,8.87,-0.75,1.02,0.02,-0.02,0.01
7:24:19 PM,8.87,-0.77,1.01,0.01,-0.02,0.01
7:24:19 PM,8.86,-0.73,1.02,0.00,0.01,0.01
7:24:19 PM,8.81,-0.74,1.08,-0.00,-0.06,0.01
7:24:19 PM,8.90,-0.74,1.02,-0.00,-0.02,0.01
7:24:19 PM,8.94,-0.74,1.01,-0.00,-0.03,0.01
7:24:19 PM,8.86,-0.78,0.99,0.00,-0.04,0.01
7:24:19 PM,8.91,-0.71,0.97,-0.00,-0.04,0.01
7:24:19 PM,8.88,-0.79,1.11,0.02,-0.02,0.01
7:24:19 PM,8.92,-0.74,1.04,0.04,0.04,0.01
7:24:19 PM,8.84,-0.72,1.06,0.04,0.02,0.01
7:24:20 PM,8.84,-0.75,0.98,0.02,-0.00,0.01
7:24:20 PM,8.89,-0.75,0.96,0.00,-0.04,0.01
7:24:20 PM,8.92,-0.75,0.99,-0.01,-0.04,0.01
7:24:20 PM,8.87,-0.72,0.98,0.00,-0.05,0.01
7:24:20 PM,8.85,-0.75,1.00,-0.01,-0.07,0.01
7:24:20 PM,8.85,-0.75,0.99,-0.01,-0.07,0.01
7:24:20 PM,8.90,-0.74,1.01,-0.01,-0.05,0.01
7:24:20 PM,8.87,-0.73,1.04,-0.01,-0.04,0.01
7:24:20 PM,8.83,-0.72,1.06,0.00,-0.07,0.01
7:24:21 PM,8.74,-0.76,1.13,0.01,-0.02,0.01
7:24:21 PM,8.82,-0.71,1.06,0.02,-0.01,0.01
7:24:21 PM,8.94,-0.71,0.95,0.03,-0.01,0.01
7:24:21 PM,8.91,-0.73,0.96,0.02,0.00,0.01
7:24:21 PM,8.85,-0.74,1.00,0.01,-0.03,0.01
7:24:21 PM,8.89,-0.69,1.02,-0.01,-0.00,0.01
7:24:21 PM,8.88,-0.68,1.07,0.00,-0.03,0.01
7:24:21 PM,8.82,-0.77,1.02,0.02,0.00,0.01
7:24:21 PM,8.95,-0.68,0.97,-0.04,-0.11,0.01
7:24:21 PM,8.92,-0.80,1.05,-0.01,-0.06,0.01
7:24:22 PM,8.89,-0.76,1.02,-0.00,-0.03,0.01
7:24:22 PM,8.87,-0.73,1.05,-0.00,-0.02,0.01
7:24:22 PM,8.90,-0.74,1.02,-0.00,-0.02,0.01
7:24:22 PM,8.91,-0.76,1.00,0.00,-0.03,0.01
7:24:22 PM,8.82,-0.73,1.07,0.01,-0.04,0.01
7:24:22 PM,8.88,-0.74,1.06,0.01,-0.03,0.01
7:24:22 PM,8.86,-0.73,1.04,0.02,-0.02,0.01
7:24:22 PM,8.86,-0.74,1.03,0.01,-0.02,0.01
7:24:22 PM,8.92,-0.71,1.03,0.02,-0.01,0.01
7:24:23 PM,8.93,-0.68,1.00,0.01,-0.00,0.01
7:24:23 PM,8.90,-0.71,1.01,0.00,-0.05,0.01
7:24:23 PM,8.86,-0.73,0.98,0.01,-0.04,0.01
7:24:23 PM,8.86,-0.70,1.03,0.01,-0.03,0.01
7:24:23 PM,8.90,-0.72,1.00,-0.00,-0.04,0.01
7:24:23 PM,8.87,-0.74,0.97,-0.01,-0.05,0.01
7:24:23 PM,8.94,-0.73,0.98,0.00,-0.02,0.01
7:24:23 PM,8.90,-0.73,0.97,0.00,-0.04,0.01
7:24:23 PM,8.89,-0.74,1.02,-0.00,-0.05,0.01
7:24:24 PM,8.84,-0.74,0.99,0.01,-0.03,0.01
7:24:24 PM,8.92,-0.73,1.02,0.01,-0.02,0.01
7:24:24 PM,8.87,-0.72,1.01,0.02,0.01,0.01
7:24:24 PM,8.93,-0.77,1.02,0.02,-0.01,0.01
7:24:24 PM,8.89,-0.70,0.96,0.01,-0.01,0.01
7:24:24 PM,8.87,-0.78,1.03,0.02,0.01,0.01
7:24:24 PM,8.95,-0.73,0.94,0.03,0.04,0.01
7:24:24 PM,8.92,-0.72,0.93,0.02,-0.01,0.01
7:24:25 PM,8.96,-0.71,0.90,0.00,-0.03,0.01
7:24:25 PM,8.90,-0.70,0.99,0.00,-0.04,0.01
7:24:25 PM,8.84,-0.72,1.02,0.01,0.00,0.01
7:24:25 PM,8.91,-0.73,0.96,0.01,-0.03,0.01
7:24:25 PM,8.91,-0.75,0.93,0.00,-0.02,0.01
7:24:25 PM,8.90,-0.76,0.95,-0.00,-0.05,0.01
7:24:25 PM,8.84,-0.68,1.01,0.00,-0.04,0.01
7:24:25 PM,8.89,-0.73,1.00,-0.00,-0.04,0.01
7:24:25 PM,8.94,-0.71,0.99,0.01,-0.02,0.01
7:24:25 PM,8.91,-0.74,0.99,0.01,-0.02,0.01
7:24:25 PM,9.01,-0.74,0.95,0.01,-0.01,0.01
7:24:25 PM,8.91,-0.71,0.94,0.02,-0.01,0.01
7:24:26 PM,8.89,-0.67,0.98,0.02,0.00,0.01
7:24:26 PM,8.86,-0.70,0.97,0.01,-0.02,0.01
7:24:26 PM,8.87,-0.72,0.98,0.01,-0.02,0.01
7:24:26 PM,8.88,-0.73,0.99,0.00,-0.02,0.01
7:24:26 PM,8.90,-0.73,0.94,0.01,-0.02,0.01
7:24:26 PM,8.89,-0.75,1.00,0.01,-0.02,0.01
7:24:26 PM,8.92,-0.74,0.98,0.02,0.01,0.01
7:24:26 PM,8.87,-0.73,0.99,0.01,-0.01,0.01
7:24:26 PM,8.93,-0.73,0.98,0.02,-0.01,0.01
7:24:27 PM,8.86,-0.75,0.97,0.01,-0.01,0.01
7:24:27 PM,8.90,-0.72,0.96,0.00,0.00,0.01
7:24:27 PM,8.88,-0.75,0.95,0.01,-0.02,0.01
7:24:27 PM,8.93,-0.76,1.12,0.04,0.04,0.01
7:24:27 PM,8.79,-0.78,1.10,0.06,0.08,0.01
7:24:27 PM,8.85,-0.72,0.97,0.03,0.03,0.01
7:24:27 PM,8.88,-0.78,0.96,0.01,-0.00,0.01
7:24:27 PM,8.91,-0.74,0.97,-0.00,-0.01,0.01
7:24:27 PM,8.87,-0.74,0.99,0.02,-0.03,0.01
7:24:28 PM,8.90,-0.71,0.98,0.03,0.02,0.01
7:24:28 PM,8.93,-0.71,0.95,0.02,-0.01,0.01
7:24:28 PM,8.87,-0.76,0.96,0.02,-0.01,0.01
7:24:28 PM,8.83,-0.74,1.03,0.02,0.00,0.01
7:24:28 PM,8.92,-0.72,1.03,0.02,0.00,0.01
7:24:29 PM,8.92,-0.72,0.95,0.02,0.01,0.01
7:24:29 PM,8.91,-0.70,0.96,0.01,-0.03,0.01
7:24:29 PM,8.93,-0.73,0.98,0.01,-0.03,0.01
7:24:29 PM,8.89,-0.73,0.96,0.01,-0.02,0.01
7:24:29 PM,8.89,-0.75,0.86,0.00,-0.06,0.01
7:24:29 PM,8.96,-0.73,0.93,0.01,-0.02,0.01
7:24:29 PM,8.94,-0.71,0.99,0.00,-0.02,0.01
7:24:29 PM,8.88,-0.72,1.02,0.02,-0.04,0.01
7:24:29 PM,8.83,-0.72,1.02,0.03,0.02,0.01
7:24:29 PM,8.94,-0.72,0.98,0.02,0.01,0.01
7:24:29 PM,8.93,-0.70,0.91,0.01,-0.02,0.01
7:24:29 PM,8.93,-0.70,0.93,0.01,-0.03,0.01
7:24:29 PM,8.83,-0.67,0.99,0.01,-0.02,0.01
7:24:29 PM,8.82,-0.68,1.06,0.01,-0.02,0.01
7:24:30 PM,8.83,-0.72,1.05,0.01,-0.00,0.01
7:24:30 PM,8.89,-0.72,0.97,0.02,-0.00,0.01
7:24:30 PM,8.91,-0.70,0.93,0.00,-0.03,0.01
7:24:30 PM,8.84,-0.72,1.02,0.00,-0.02,0.01
7:24:30 PM,8.83,-0.70,1.02,0.01,-0.00,0.01
7:24:30 PM,8.94,-0.69,0.98,-0.00,0.01,0.01
7:24:30 PM,8.94,-0.71,0.91,0.00,-0.04,0.01
7:24:30 PM,8.91,-0.71,1.01,-0.00,-0.03,0.01
7:24:30 PM,8.88,-0.74,1.01,0.02,-0.00,0.01
7:24:30 PM,8.89,-0.75,0.97,0.02,-0.01,0.01
7:24:31 PM,8.90,-0.70,0.96,0.02,-0.01,0.01
7:24:31 PM,8.86,-0.74,1.00,0.01,-0.00,0.01
7:24:31 PM,8.92,-0.72,0.95,0.01,-0.01,0.01
7:24:31 PM,9.03,-0.73,0.81,-0.01,-0.05,0.01
7:24:31 PM,8.83,-0.68,1.04,-0.03,-0.10,0.01
7:24:31 PM,8.74,-0.70,1.17,-0.00,-0.08,0.01
7:24:31 PM,8.84,-0.74,1.07,0.01,-0.02,0.01
7:24:31 PM,8.94,-0.74,0.85,0.01,-0.03,0.01
7:24:31 PM,8.91,-0.70,0.90,-0.01,-0.07,0.01
7:24:32 PM,8.89,-0.75,0.95,-0.01,-0.07,0.01
7:24:32 PM,8.91,-0.74,1.06,0.01,0.00,0.01
7:24:32 PM,8.94,-0.73,0.96,0.04,0.00,0.01
7:24:32 PM,8.99,-0.77,0.89,0.02,-0.01,0.01
7:24:32 PM,8.98,-0.76,0.94,0.01,-0.02,0.01
7:24:32 PM,8.91,-0.73,0.96,0.01,-0.02,0.01
7:24:32 PM,8.88,-0.72,1.02,0.01,0.00,0.01
7:24:32 PM,8.88,-0.72,1.00,0.01,-0.02,0.01
7:24:32 PM,8.87,-0.72,0.91,0.00,-0.03,0.01
7:24:32 PM,8.90,-0.71,0.91,0.02,-0.02,0.01
7:24:33 PM,8.88,-0.77,0.99,0.02,-0.01,0.01
7:24:33 PM,8.86,-0.70,0.94,0.01,-0.02,0.01
7:24:33 PM,8.80,-0.71,1.06,-0.01,-0.04,0.01
7:24:33 PM,8.81,-0.72,1.02,-0.01,-0.04,0.01
7:24:33 PM,8.88,-0.72,1.00,-0.01,-0.05,0.01
7:24:33 PM,8.99,-0.74,0.90,-0.00,-0.05,0.01
7:24:33 PM,8.95,-0.74,0.90,-0.01,-0.06,0.01
7:24:33 PM,8.88,-0.75,0.98,-0.02,-0.06,0.01
7:24:33 PM,8.86,-0.74,1.07,0.00,-0.00,0.01
7:24:34 PM,8.94,-0.75,1.00,0.01,-0.00,0.01
7:24:34 PM,8.88,-0.71,1.01,0.01,-0.02,0.01
7:24:34 PM,8.94,-0.69,0.95,0.01,-0.01,0.01
7:24:34 PM,8.87,-0.71,0.98,0.01,-0.01,0.01
7:24:34 PM,8.82,-0.72,0.99,0.01,-0.03,0.01
7:24:34 PM,8.85,-0.74,1.02,0.03,0.03,0.01
7:24:34 PM,8.87,-0.73,0.99,0.03,0.01,0.01
7:24:34 PM,8.86,-0.77,1.03,0.02,0.00,0.01
7:24:34 PM,8.87,-0.75,0.95,0.01,-0.03,0.01
7:24:34 PM,8.82,-0.75,0.99,0.01,-0.03,0.01
7:24:35 PM,8.90,-0.75,0.94,0.01,-0.01,0.01
7:24:35 PM,8.91,-0.74,0.97,0.00,-0.03,0.01
7:24:35 PM,8.88,-0.73,1.02,0.00,-0.03,0.01
7:24:35 PM,8.86,-0.70,1.02,0.01,-0.02,0.01
7:24:35 PM,8.84,-0.70,1.01,0.02,-0.01,0.01
7:24:35 PM,8.87,-0.71,0.96,0.01,-0.01,0.01
7:24:35 PM,8.85,-0.76,0.93,-0.00,-0.07,0.01
7:24:35 PM,8.89,-0.77,1.00,-0.00,-0.02,0.01
7:24:35 PM,8.93,-0.73,1.00,0.01,0.01,0.01
7:24:36 PM,8.89,-0.73,0.96,0.01,-0.01,0.01
7:24:36 PM,8.91,-0.74,0.93,0.01,-0.02,0.01
7:24:36 PM,8.91,-0.72,0.95,0.01,-0.01,0.01
7:24:36 PM,8.89,-0.78,0.95,0.00,-0.03,0.01
7:24:36 PM,8.89,-0.75,0.95,0.00,-0.01,0.01
7:24:36 PM,8.89,-0.72,0.95,0.01,-0.04,0.01
7:24:36 PM,8.98,-0.71,0.93,0.01,-0.04,0.01
7:24:36 PM,8.97,-0.72,0.91,-0.01,-0.04,0.01
7:24:36 PM,8.94,-0.73,0.92,0.00,-0.04,0.01
7:24:36 PM,8.94,-0.72,0.94,-0.00,-0.02,0.01
7:24:37 PM,8.91,-0.74,0.99,-0.00,-0.02,0.01
7:24:37 PM,8.95,-0.72,0.92,-0.01,-0.05,0.01
7:24:37 PM,8.94,-0.76,0.95,-0.00,-0.03,0.01
7:24:37 PM,8.97,-0.76,0.90,0.01,-0.04,0.01
7:24:37 PM,8.97,-0.74,0.95,0.01,-0.05,0.01
7:24:37 PM,8.91,-0.71,0.99,0.01,-0.04,0.01
7:24:37 PM,8.88,-0.71,1.01,0.02,0.03,0.01
7:24:37 PM,8.92,-0.72,0.90,0.02,0.02,0.01
7:24:37 PM,8.94,-0.75,0.92,0.01,-0.05,0.01
7:24:38 PM,8.86,-0.72,1.00,0.01,-0.00,0.01
7:24:38 PM,8.86,-0.74,0.98,0.01,-0.02,0.01
7:24:38 PM,8.92,-0.73,0.97,0.02,0.00,0.01
7:24:38 PM,8.93,-0.72,0.95,0.03,0.02,0.01
7:24:38 PM,8.82,-0.70,1.02,0.03,0.01,0.01
7:24:38 PM,8.91,-0.72,0.90,0.00,-0.03,0.01
7:24:38 PM,8.83,-0.72,1.01,0.01,-0.03,0.01
7:24:38 PM,8.87,-0.74,0.99,0.01,-0.03,0.01
7:24:38 PM,8.91,-0.77,0.99,0.02,-0.00,0.01
7:24:39 PM,8.99,-0.75,0.95,0.03,0.01,0.01
7:24:39 PM,8.88,-0.69,1.03,0.03,0.01,0.01
7:24:39 PM,8.96,-0.73,0.94,0.04,0.01,0.01
7:24:39 PM,9.04,-0.72,0.85,0.02,-0.01,0.01
7:24:39 PM,8.98,-0.71,0.85,0.01,-0.03,0.01
7:24:39 PM,8.92,-0.77,0.93,0.01,-0.03,0.01
7:24:39 PM,8.89,-0.71,0.97,0.01,-0.03,0.01
7:24:39 PM,8.92,-0.73,0.96,0.01,-0.02,0.01
7:24:39 PM,8.97,-0.75,0.90,0.01,-0.01,0.01
7:24:39 PM,8.90,-0.71,0.90,0.01,0.00,0.01
7:24:40 PM,8.94,-0.75,0.94,0.01,-0.03,0.01
7:24:40 PM,8.85,-0.75,0.96,0.01,-0.03,0.01
7:24:40 PM,8.88,-0.73,1.00,0.01,-0.01,0.01
7:24:40 PM,8.89,-0.68,0.99,0.01,-0.00,0.01
7:24:40 PM,8.89,-0.72,0.98,0.00,-0.02,0.01
7:24:40 PM,8.90,-0.74,0.96,0.01,-0.01,0.01
7:24:40 PM,8.76,-0.79,0.93,0.01,-0.01,0.01
7:24:40 PM,8.88,-0.77,0.96,0.00,-0.03,0.01
7:24:40 PM,8.90,-0.70,0.96,0.01,-0.03,0.01
7:24:41 PM,8.89,-0.75,0.94,0.01,-0.01,0.01
7:24:41 PM,8.93,-0.72,0.96,0.01,-0.02,0.01
7:24:41 PM,8.91,-0.69,0.94,0.00,-0.01,0.01
7:24:41 PM,8.86,-0.70,0.95,0.00,-0.02,0.01
7:24:41 PM,8.86,-0.74,1.01,0.01,-0.01,0.01
7:24:41 PM,8.89,-0.73,0.97,0.01,-0.01,0.01
7:24:41 PM,8.90,-0.74,0.96,0.01,-0.00,0.01
7:24:41 PM,8.82,-0.71,1.00,0.01,-0.03,0.01
7:24:41 PM,8.83,-0.71,0.99,0.02,-0.01,0.01
7:24:41 PM,8.92,-0.74,0.99,0.01,-0.02,0.01
7:24:42 PM,8.89,-0.72,0.96,0.01,-0.02,0.01
7:24:42 PM,8.93,-0.71,0.97,0.01,-0.00,0.01
7:24:42 PM,8.89,-0.75,0.97,0.01,-0.02,0.01
7:24:42 PM,8.90,-0.71,0.97,0.01,-0.03,0.01
7:24:42 PM,8.93,-0.72,1.00,0.01,-0.02,0.01
7:24:42 PM,8.92,-0.75,0.95,0.01,-0.02,0.01
7:24:42 PM,8.86,-0.75,0.95,0.01,-0.00,0.01
7:24:42 PM,8.82,-0.74,1.00,0.02,-0.02,0.01
7:24:42 PM,8.87,-0.74,1.01,0.01,-0.03,0.01
7:24:43 PM,8.92,-0.72,1.00,0.01,-0.03,0.01
7:24:43 PM,8.89,-0.75,0.97,0.00,-0.03,0.01
7:24:43 PM,8.92,-0.75,0.97,0.01,-0.02,0.01
7:24:43 PM,8.90,-0.70,0.95,0.02,-0.00,0.01
7:24:43 PM,8.89,-0.71,0.95,0.01,-0.02,0.01
7:24:43 PM,8.96,-0.73,0.92,-0.00,-0.04,0.01
7:24:43 PM,8.95,-0.74,0.95,0.00,-0.04,0.01
7:24:43 PM,8.92,-0.72,0.95,-0.00,-0.03,0.01
7:24:43 PM,8.87,-0.74,0.95,-0.00,-0.04,0.01
7:24:43 PM,8.91,-0.73,0.95,0.00,-0.04,0.01
7:24:44 PM,8.90,-0.72,0.92,-0.00,-0.03,0.01
7:24:44 PM,8.90,-0.72,0.96,0.01,-0.03,0.01
7:24:44 PM,8.91,-0.73,0.93,0.01,-0.01,0.01
7:24:44 PM,8.92,-0.72,0.89,0.00,-0.03,0.01
7:24:44 PM,8.88,-0.73,0.90,0.00,-0.02,0.01
7:24:44 PM,8.85,-0.73,0.97,0.00,-0.01,0.01
7:24:44 PM,8.88,-0.74,0.94,0.00,-0.04,0.01
7:24:44 PM,8.86,-0.72,0.95,0.01,-0.04,0.01
7:24:44 PM,8.90,-0.76,0.91,0.00,-0.03,0.01
7:24:45 PM,8.95,-0.71,0.90,0.01,-0.02,0.01
7:24:45 PM,8.88,-0.68,0.97,0.00,-0.02,0.01
7:24:45 PM,8.86,-0.71,1.04,0.01,-0.02,0.01
7:24:45 PM,8.88,-0.71,0.99,0.02,-0.00,0.01
7:24:45 PM,8.84,-0.70,0.93,0.01,-0.02,0.01
7:24:45 PM,8.87,-0.72,0.94,-0.01,-0.07,0.01
7:24:45 PM,8.83,-0.72,1.01,-0.01,-0.07,0.01
7:24:45 PM,8.86,-0.74,0.94,0.01,-0.01,0.01
7:24:45 PM,8.93,-0.74,0.85,-0.01,-0.07,0.01
7:24:45 PM,8.94,-0.78,0.90,0.03,0.02,0.01
7:24:46 PM,9.01,-0.75,0.89,0.03,0.04,0.01
7:24:46 PM,8.91,-0.70,0.89,0.02,-0.02,0.01
7:24:46 PM,8.87,-0.73,0.96,0.00,-0.01,0.01
7:24:46 PM,8.89,-0.71,0.94,0.01,-0.01,0.01
7:24:46 PM,8.95,-0.72,0.94,0.02,0.00,0.01
7:24:46 PM,8.95,-0.71,0.87,0.02,-0.01,0.01
7:24:46 PM,8.96,-0.75,0.85,0.01,-0.01,0.01
7:24:46 PM,8.94,-0.72,0.87,0.00,-0.03,0.01
7:24:46 PM,8.88,-0.75,0.87,-0.00,-0.02,0.01
7:24:47 PM,8.89,-0.74,0.94,0.00,-0.03,0.01
7:24:47 PM,8.89,-0.74,0.92,0.01,-0.01,0.01
7:24:47 PM,8.89,-0.74,0.90,0.01,-0.01,0.01
7:24:47 PM,8.91,-0.75,0.91,0.01,-0.02,0.01
7:24:47 PM,8.86,-0.73,0.89,0.00,-0.03,0.01
7:24:47 PM,8.87,-0.73,0.93,-0.00,-0.02,0.01
7:24:47 PM,8.86,-0.76,0.93,0.01,-0.01,0.01
7:24:47 PM,8.88,-0.72,0.96,0.02,-0.00,0.01
7:24:47 PM,8.91,-0.71,0.94,0.02,-0.02,0.01
7:24:47 PM,8.88,-0.73,0.95,0.01,-0.01,0.01
7:24:48 PM,8.92,-0.74,0.93,0.01,-0.01,0.01
7:24:48 PM,8.92,-0.74,0.92,0.01,-0.00,0.01
7:24:48 PM,8.89,-0.69,0.94,0.01,-0.01,0.01
7:24:48 PM,8.91,-0.73,0.93,0.01,-0.01,0.01
7:24:48 PM,8.94,-0.73,0.94,0.02,-0.02,0.01
7:24:48 PM,8.91,-0.72,0.93,0.01,-0.01,0.01
7:24:48 PM,8.90,-0.74,0.91,0.01,-0.01,0.01
7:24:48 PM,8.91,-0.75,0.91,0.01,-0.03,0.01
7:24:48 PM,8.92,-0.76,0.88,0.01,-0.01,0.01
7:24:49 PM,8.88,-0.73,0.94,0.02,-0.01,0.01
7:24:49 PM,8.90,-0.76,0.98,0.01,-0.01,0.01
7:24:49 PM,8.91,-0.73,0.94,0.01,-0.01,0.01
7:24:49 PM,8.90,-0.74,0.94,0.00,-0.01,0.01
7:24:49 PM,8.89,-0.74,0.91,0.01,-0.02,0.01
7:24:49 PM,8.87,-0.72,0.96,0.02,-0.00,0.01
7:24:49 PM,8.94,-0.72,0.94,0.01,-0.02,0.01
7:24:49 PM,8.94,-0.70,0.90,0.01,-0.02,0.01
7:24:49 PM,8.95,-0.75,0.89,0.01,-0.02,0.01
7:24:49 PM,8.90,-0.71,0.90,0.01,-0.03,0.01
7:24:50 PM,8.87,-0.68,0.93,0.01,-0.02,0.01
7:24:50 PM,8.89,-0.73,0.90,0.01,-0.01,0.01
7:24:50 PM,8.94,-0.72,0.87,0.00,-0.03,0.01
7:24:50 PM,8.96,-0.73,0.90,0.00,-0.03,0.01
7:24:50 PM,8.99,-0.74,0.89,0.00,-0.03,0.01
7:24:50 PM,8.93,-0.75,0.89,0.01,-0.03,0.01
7:24:50 PM,8.89,-0.76,0.89,0.00,-0.02,0.01
7:24:50 PM,8.90,-0.74,0.89,0.01,-0.02,0.01
7:24:50 PM,8.94,-0.74,0.88,0.01,-0.00,0.01
7:24:51 PM,8.92,-0.77,0.91,0.02,-0.02,0.01
7:24:51 PM,8.95,-0.69,0.91,0.01,-0.01,0.01
7:24:51 PM,8.91,-0.72,0.92,0.01,-0.02,0.01
7:24:51 PM,8.87,-0.71,0.91,0.01,-0.01,0.01
7:24:51 PM,8.91,-0.72,0.92,0.01,-0.02,0.01
7:24:51 PM,8.92,-0.70,0.93,0.01,-0.02,0.01
7:24:51 PM,8.91,-0.73,0.90,0.01,-0.00,0.01
7:24:51 PM,8.94,-0.69,0.94,0.02,-0.02,0.01
7:24:51 PM,8.89,-0.68,0.90,0.01,-0.02,0.01
7:24:52 PM,8.88,-0.73,0.89,0.01,-0.01,0.01
7:24:52 PM,8.93,-0.74,0.90,0.01,-0.00,0.01
7:24:52 PM,8.89,-0.72,0.90,0.01,-0.02,0.01
7:24:52 PM,8.92,-0.70,0.89,0.01,-0.01,0.01
7:24:52 PM,8.85,-0.71,0.91,0.01,-0.02,0.01
7:24:52 PM,8.92,-0.71,0.90,0.01,-0.00,0.01
7:24:52 PM,8.87,-0.73,0.91,0.01,-0.02,0.01
7:24:52 PM,8.93,-0.74,0.92,0.01,-0.02,0.01
7:24:52 PM,8.92,-0.74,0.87,0.01,-0.02,0.01
7:24:52 PM,8.91,-0.75,0.87,-0.00,-0.03,0.01
7:24:53 PM,8.94,-0.72,0.90,0.00,-0.03,0.01
7:24:53 PM,8.94,-0.74,0.92,0.01,-0.01,0.01
7:24:53 PM,8.91,-0.72,0.92,0.01,-0.02,0.01
7:24:53 PM,8.92,-0.73,0.88,0.01,-0.02,0.01
7:24:53 PM,8.94,-0.73,0.89,0.01,-0.03,0.01
7:24:53 PM,8.90,-0.75,0.90,0.01,-0.01,0.01
7:24:53 PM,8.92,-0.70,0.89,0.01,-0.01,0.01
7:24:53 PM,8.95,-0.73,0.84,0.02,0.01,0.01
7:24:53 PM,8.93,-0.74,0.89,0.02,0.00,0.01
7:24:54 PM,8.87,-0.72,0.94,0.01,0.01,0.01
7:24:54 PM,8.90,-0.72,0.92,0.01,-0.00,0.01
7:24:54 PM,8.90,-0.72,0.91,0.01,-0.01,0.01
7:24:54 PM,8.94,-0.74,0.88,0.01,-0.02,0.01
7:24:54 PM,8.94,-0.72,0.87,0.02,0.00,0.01
7:24:54 PM,8.92,-0.74,0.87,0.02,-0.01,0.01
7:24:54 PM,8.94,-0.74,0.84,0.01,-0.01,0.01
7:24:54 PM,8.91,-0.70,0.87,0.01,-0.01,0.01
7:24:54 PM,8.90,-0.71,0.91,0.01,-0.01,0.01
7:24:54 PM,8.94,-0.71,0.90,0.02,-0.02,0.01
7:24:55 PM,8.90,-0.72,0.92,0.03,-0.00,0.01
7:24:55 PM,8.87,-0.73,0.93,0.01,-0.01,0.01
7:24:55 PM,8.90,-0.73,0.91,0.02,-0.00,0.01
7:24:55 PM,8.91,-0.74,0.91,0.01,-0.01,0.01
7:24:55 PM,8.91,-0.74,0.88,0.01,-0.02,0.01
7:24:55 PM,8.93,-0.72,0.94,0.01,-0.03,0.01
7:24:55 PM,8.88,-0.72,0.99,0.01,-0.01,0.01
7:24:55 PM,8.94,-0.70,0.88,0.01,-0.03,0.01
7:24:55 PM,8.90,-0.70,0.90,0.00,-0.02,0.01
7:24:56 PM,8.93,-0.73,0.89,-0.00,-0.02,0.01
7:24:56 PM,8.97,-0.72,0.86,0.01,-0.02,0.01
7:24:56 PM,8.95,-0.69,0.86,0.01,-0.02,0.01
7:24:56 PM,8.97,-0.76,0.85,0.01,-0.01,0.01
7:24:56 PM,9.02,-0.73,0.74,0.01,-0.01,0.01
7:24:56 PM,8.98,-0.74,0.84,0.01,-0.02,0.01
7:24:56 PM,8.90,-0.73,0.92,0.00,-0.03,0.01
7:24:56 PM,8.88,-0.70,0.92,0.00,-0.03,0.01
7:24:56 PM,8.86,-0.74,0.85,-0.01,-0.04,0.01
7:24:56 PM,8.88,-0.76,0.91,0.00,-0.03,0.01
7:24:57 PM,8.95,-0.71,0.87,0.01,-0.03,0.01
7:24:57 PM,8.93,-0.70,0.88,0.01,-0.02,0.01
7:24:57 PM,8.88,-0.73,0.94,0.01,-0.02,0.01
7:24:57 PM,8.88,-0.75,0.91,0.02,-0.01,0.01
7:24:57 PM,8.91,-0.74,0.89,0.03,0.00,0.01
7:24:57 PM,8.88,-0.74,0.86,0.02,-0.01,0.01
7:24:57 PM,8.90,-0.74,0.89,0.01,-0.02,0.01
7:24:57 PM,8.89,-0.73,0.92,0.01,0.00,0.01
7:24:57 PM,8.89,-0.76,0.90,0.01,-0.02,0.01
7:24:58 PM,8.89,-0.71,0.89,0.02,-0.02,0.01
7:24:58 PM,8.90,-0.69,0.88,0.02,-0.02,0.01
7:24:58 PM,8.91,-0.72,0.90,0.01,-0.02,0.01
7:24:58 PM,8.95,-0.70,0.85,0.01,-0.01,0.01
7:24:58 PM,8.90,-0.74,0.84,0.01,-0.04,0.01
7:24:58 PM,8.88,-0.76,0.91,0.01,-0.03,0.01
7:24:58 PM,8.87,-0.71,0.94,0.01,-0.01,0.01
7:24:58 PM,8.89,-0.73,0.91,0.02,-0.02,0.01
7:24:58 PM,8.92,-0.71,0.92,0.01,-0.02,0.01
7:24:58 PM,8.88,-0.73,0.86,0.01,-0.01,0.01
7:24:59 PM,8.93,-0.71,0.88,0.00,-0.02,0.01
7:24:59 PM,8.87,-0.73,0.90,0.01,-0.02,0.01
7:24:59 PM,8.90,-0.71,0.91,0.01,-0.03,0.01
7:24:59 PM,8.88,-0.73,0.87,0.01,-0.01,0.01
7:24:59 PM,8.91,-0.76,0.88,0.01,0.00,0.01
7:24:59 PM,8.91,-0.71,0.91,-0.00,-0.02,0.01
7:24:59 PM,8.96,-0.72,0.90,0.00,-0.01,0.01
7:24:59 PM,8.91,-0.73,0.91,0.01,-0.01,0.01
7:24:59 PM,8.94,-0.74,0.86,0.01,-0.03,0.01
7:25:00 PM,8.89,-0.72,0.89,0.01,-0.02,0.01
7:25:00 PM,8.91,-0.72,0.88,0.01,-0.02,0.01
7:25:00 PM,8.90,-0.71,0.92,0.01,-0.02,0.01
7:25:00 PM,8.91,-0.72,0.88,0.01,-0.02,0.01
7:25:00 PM,8.94,-0.74,0.87,0.01,-0.01,0.01
7:25:00 PM,8.95,-0.73,0.86,0.02,-0.00,0.01
7:25:00 PM,8.90,-0.72,0.92,0.01,-0.01,0.01
7:25:00 PM,8.85,-0.76,0.90,0.01,-0.02,0.01
7:25:00 PM,8.88,-0.73,0.89,0.01,-0.03,0.01
7:25:00 PM,8.88,-0.76,0.90,0.02,-0.02,0.01
7:25:01 PM,8.89,-0.74,0.86,0.01,-0.01,0.01
7:25:01 PM,8.91,-0.72,0.88,0.01,0.00,0.01
7:25:01 PM,8.91,-0.73,0.87,0.01,-0.01,0.01
7:25:01 PM,9.00,-0.74,0.78,0.01,-0.01,0.01
7:25:01 PM,9.02,-0.73,0.80,0.01,-0.02,0.01
7:25:01 PM,8.95,-0.74,0.88,0.01,-0.02,0.01
7:25:01 PM,8.92,-0.69,0.90,0.01,-0.03,0.01
7:25:01 PM,8.89,-0.74,0.91,0.01,-0.01,0.01
7:25:01 PM,8.92,-0.71,0.88,0.01,-0.01,0.01
7:25:02 PM,8.91,-0.73,0.89,0.01,-0.01,0.01
7:25:02 PM,8.92,-0.73,0.86,0.01,-0.03,0.01
7:25:02 PM,8.93,-0.72,0.89,0.00,-0.03,0.01
7:25:02 PM,8.92,-0.71,0.91,0.01,-0.03,0.01
7:25:02 PM,8.95,-0.74,0.93,-0.01,-0.05,0.01
7:25:02 PM,8.88,-0.72,0.95,-0.00,-0.04,0.01
7:25:02 PM,8.91,-0.70,0.92,0.01,-0.01,0.01
7:25:02 PM,8.92,-0.74,0.83,0.00,-0.02,0.01
7:25:02 PM,9.06,-0.75,0.81,0.01,-0.03,0.01
7:25:03 PM,8.99,-0.74,0.83,0.00,-0.03,0.01
7:25:03 PM,8.89,-0.75,0.88,-0.00,-0.02,0.01
7:25:03 PM,8.89,-0.74,0.92,0.00,-0.02,0.01
7:25:03 PM,8.96,-0.71,0.86,0.01,-0.01,0.01
7:25:03 PM,8.90,-0.75,0.82,0.01,-0.03,0.01
7:25:03 PM,8.91,-0.75,0.84,-0.00,-0.03,0.01
7:25:03 PM,8.93,-0.72,0.84,0.01,-0.02,0.01
7:25:03 PM,8.94,-0.73,0.87,0.01,-0.02,0.01
7:25:03 PM,8.93,-0.74,0.85,0.01,-0.03,0.01
7:25:03 PM,8.94,-0.74,0.82,0.01,-0.02,0.01
7:25:04 PM,8.91,-0.74,0.88,0.01,-0.02,0.01
7:25:04 PM,8.90,-0.72,0.87,0.01,-0.01,0.01
7:25:04 PM,8.91,-0.74,0.90,0.01,-0.01,0.01
7:25:04 PM,8.92,-0.73,0.88,0.01,-0.01,0.01
7:25:04 PM,8.89,-0.71,0.89,0.01,-0.02,0.01
7:25:04 PM,8.89,-0.75,0.89,0.01,-0.04,0.01
7:25:04 PM,8.92,-0.74,0.85,-0.00,-0.03,0.01
7:25:04 PM,8.92,-0.70,0.88,0.00,-0.04,0.01
7:25:04 PM,8.93,-0.73,0.87,0.01,-0.01,0.01
7:25:05 PM,8.89,-0.73,0.88,0.01,-0.02,0.01
7:25:05 PM,8.91,-0.71,0.90,0.01,-0.01,0.01
7:25:05 PM,8.93,-0.70,0.86,0.01,-0.02,0.01
7:25:05 PM,8.90,-0.72,0.88,0.01,-0.00,0.01
7:25:05 PM,8.97,-0.72,0.79,0.01,-0.01,0.01
7:25:05 PM,8.90,-0.74,0.81,0.01,-0.02,0.01
7:25:05 PM,8.90,-0.73,0.88,0.00,-0.04,0.01
7:25:05 PM,8.90,-0.72,0.89,0.00,-0.02,0.01
7:25:05 PM,8.81,-0.75,0.96,0.01,-0.01,0.01
7:25:05 PM,8.94,-0.72,0.94,0.02,-0.00,0.01
7:25:06 PM,8.90,-0.58,0.98,0.03,0.01,0.01
7:25:06 PM,8.74,-0.76,0.86,0.00,0.02,0.01
7:25:06 PM,8.74,-0.87,0.85,0.02,0.05,0.01
7:25:06 PM,8.98,-0.69,0.94,0.04,0.06,0.01
7:25:06 PM,8.91,-0.75,0.85,0.03,0.03,0.01
7:25:06 PM,8.88,-0.74,0.93,0.02,0.02,0.01
7:25:06 PM,8.89,-0.70,0.92,0.03,0.04,0.01
7:25:06 PM,8.92,-0.71,0.87,0.02,0.00,0.01
7:25:06 PM,8.92,-0.72,0.85,0.02,0.00,0.01
7:25:07 PM,8.93,-0.72,0.85,0.01,-0.02,0.01
7:25:07 PM,8.96,-0.72,0.81,-0.00,-0.04,0.01
7:25:07 PM,8.93,-0.71,0.79,-0.01,-0.05,0.01
7:25:07 PM,8.94,-0.73,0.85,-0.00,-0.06,0.01
7:25:07 PM,8.90,-0.73,0.93,0.01,-0.03,0.01
7:25:07 PM,8.80,-0.72,0.98,0.00,-0.04,0.01
7:25:07 PM,8.83,-0.72,0.95,-0.00,-0.03,0.01
7:25:07 PM,8.84,-0.73,0.94,0.00,-0.02,0.01
7:25:07 PM,8.83,-0.71,0.94,0.00,-0.02,0.01
7:25:07 PM,8.83,-0.73,0.95,0.02,-0.02,0.01
7:25:08 PM,8.88,-0.69,0.93,0.01,-0.03,0.01
7:25:08 PM,8.90,-0.73,0.94,0.00,-0.02,0.01
7:25:08 PM,8.85,-0.74,0.91,0.01,-0.01,0.01
7:25:08 PM,8.92,-0.72,0.85,0.00,-0.02,0.01
7:25:08 PM,8.93,-0.74,0.86,0.01,-0.01,0.01
7:25:08 PM,8.90,-0.74,0.82,-0.00,-0.04,0.01
7:25:08 PM,8.91,-0.73,0.87,-0.00,-0.04,0.01
7:25:08 PM,8.91,-0.76,0.80,-0.01,-0.04,0.01
7:25:08 PM,8.96,-0.76,0.79,-0.02,-0.09,0.01
7:25:09 PM,8.91,-0.79,0.84,-0.01,-0.05,0.01
7:25:09 PM,8.90,-0.75,0.91,0.00,-0.01,0.01
7:25:09 PM,8.86,-0.71,0.94,0.00,-0.00,0.01
7:25:09 PM,8.89,-0.71,0.90,0.01,-0.01,0.01
7:25:09 PM,8.90,-0.72,0.85,0.01,-0.04,0.01
7:25:09 PM,8.91,-0.71,0.88,-0.00,-0.02,0.01
7:25:09 PM,8.91,-0.71,0.93,0.01,-0.03,0.01
7:25:09 PM,8.90,-0.74,0.89,0.02,-0.00,0.01
7:25:09 PM,8.90,-0.74,0.88,0.02,0.00,0.01
7:25:09 PM,8.91,-0.70,0.86,0.01,-0.01,0.01
7:25:10 PM,8.93,-0.71,0.87,0.01,-0.03,0.01
7:25:10 PM,8.92,-0.72,0.85,0.01,-0.04,0.01
7:25:10 PM,8.95,-0.73,0.87,0.02,-0.01,0.01
7:25:10 PM,8.91,-0.72,0.87,0.01,-0.02,0.01
7:25:10 PM,8.89,-0.73,0.85,0.01,-0.03,0.01
7:25:10 PM,8.90,-0.75,0.91,0.01,-0.03,0.01
7:25:10 PM,8.91,-0.73,0.88,0.01,-0.02,0.01
7:25:10 PM,8.93,-0.72,0.87,0.01,-0.02,0.01
7:25:10 PM,8.93,-0.74,0.88,0.01,-0.02,0.01
7:25:11 PM,8.91,-0.71,0.89,0.01,-0.02,0.01
7:25:11 PM,8.86,-0.73,0.91,0.01,-0.03,0.01
7:25:11 PM,8.92,-0.69,0.90,0.01,-0.02,0.01
7:25:11 PM,8.92,-0.74,0.90,0.02,-0.01,0.01
7:25:11 PM,8.96,-0.73,0.84,0.01,-0.01,0.01
7:25:11 PM,8.92,-0.74,0.84,0.02,0.00,0.01
7:25:11 PM,8.88,-0.71,0.85,0.01,-0.00,0.01
7:25:11 PM,8.85,-0.73,0.91,0.01,-0.01,0.01
7:25:11 PM,8.91,-0.70,0.89,0.01,-0.01,0.01
7:25:11 PM,8.95,-0.75,0.84,0.01,-0.02,0.01
7:25:12 PM,8.97,-0.73,0.88,0.02,-0.01,0.01
7:25:12 PM,8.89,-0.73,0.86,0.01,-0.02,0.01
7:25:12 PM,8.94,-0.73,0.88,0.02,-0.01,0.01
7:25:12 PM,8.92,-0.73,0.86,0.00,-0.01,0.01
7:25:12 PM,8.92,-0.72,0.89,0.00,-0.02,0.01
7:25:12 PM,8.89,-0.73,0.86,0.01,-0.03,0.01
7:25:12 PM,8.93,-0.70,0.91,0.00,-0.03,0.01
7:25:13 PM,8.85,-0.72,0.95,0.01,-0.01,0.01
7:25:13 PM,8.86,-0.71,0.91,0.02,-0.00,0.01
7:25:14 PM,8.84,-0.73,0.92,0.01,-0.02,0.01
7:25:14 PM,8.89,-0.74,0.88,0.01,-0.02,0.01
7:25:14 PM,8.95,-0.74,0.87,0.01,-0.02,0.01
7:25:14 PM,8.97,-0.74,0.87,0.01,-0.01,0.01
7:25:14 PM,8.93,-0.74,0.89,0.01,-0.01,0.01
7:25:14 PM,8.93,-0.72,0.86,0.01,-0.00,0.01
7:25:14 PM,8.95,-0.73,0.87,0.01,-0.00,0.01
7:25:14 PM,8.92,-0.72,0.85,0.01,-0.00,0.01
7:25:14 PM,8.95,-0.70,0.87,0.01,-0.02,0.01
7:25:14 PM,8.91,-0.69,0.89,0.01,-0.03,0.01
7:25:15 PM,8.95,-0.70,0.84,0.01,-0.02,0.01
7:25:15 PM,8.94,-0.76,0.84,0.01,-0.01,0.01
7:25:15 PM,8.93,-0.72,0.86,0.01,-0.01,0.01
7:25:15 PM,8.93,-0.73,0.88,0.01,-0.02,0.01
7:25:15 PM,8.94,-0.71,0.85,0.01,-0.02,0.01
7:25:15 PM,8.92,-0.75,0.84,0.01,-0.01,0.01
7:25:15 PM,8.92,-0.69,0.85,0.02,0.01,0.01
7:25:15 PM,8.91,-0.71,0.85,0.01,-0.01,0.01
7:25:15 PM,8.93,-0.70,0.82,0.01,-0.01,0.01
7:25:15 PM,8.94,-0.74,0.81,0.01,-0.02,0.01
7:25:16 PM,8.94,-0.74,0.81,0.00,-0.02,0.01
7:25:16 PM,8.89,-0.76,0.84,0.00,-0.03,0.01
7:25:16 PM,8.90,-0.74,0.86,0.01,-0.01,0.01
7:25:16 PM,8.92,-0.74,0.81,0.01,0.00,0.01
7:25:16 PM,8.84,-0.72,0.87,0.00,-0.02,0.01
7:25:16 PM,8.90,-0.74,0.85,-0.00,-0.03,0.01
7:25:16 PM,8.92,-0.72,0.83,0.01,-0.02,0.01
7:25:16 PM,8.92,-0.72,0.84,0.02,-0.00,0.01
7:25:16 PM,8.94,-0.71,0.80,0.01,-0.02,0.01
7:25:17 PM,8.94,-0.69,0.83,0.01,-0.02,0.01
7:25:17 PM,8.96,-0.74,0.81,0.01,-0.02,0.01
7:25:17 PM,8.97,-0.71,0.86,0.02,-0.01,0.01
7:25:17 PM,8.94,-0.71,0.84,0.03,0.01,0.01
7:25:17 PM,8.93,-0.75,0.83,0.02,-0.00,0.01
7:25:17 PM,9.00,-0.72,0.80,0.02,-0.01,0.01
7:25:17 PM,9.00,-0.72,0.80,0.02,-0.02,0.01
7:25:17 PM,8.95,-0.74,0.77,0.00,-0.05,0.01
7:25:17 PM,8.90,-0.74,0.88,0.00,-0.05,0.01
7:25:17 PM,8.86,-0.74,0.90,0.02,-0.01,0.01
7:25:18 PM,8.87,-0.71,0.89,0.02,0.00,0.01
7:25:18 PM,8.93,-0.71,0.85,0.01,-0.00,0.01
7:25:18 PM,8.96,-0.74,0.82,0.00,-0.02,0.01
7:25:18 PM,8.86,-0.70,0.88,0.01,-0.01,0.01
7:25:18 PM,8.95,-0.70,0.88,0.02,0.01,0.01
7:25:18 PM,8.89,-0.68,0.88,0.02,0.00,0.01
7:25:18 PM,8.84,-0.73,0.91,0.02,0.01,0.01
7:25:18 PM,8.90,-0.72,0.87,0.02,0.00,0.01
7:25:18 PM,8.94,-0.73,0.84,0.01,-0.01,0.01
7:25:19 PM,8.91,-0.71,0.83,0.02,-0.01,0.01
7:25:19 PM,8.85,-0.72,0.93,0.01,-0.02,0.01
7:25:19 PM,8.90,-0.74,0.87,0.01,-0.00,0.01
7:25:19 PM,8.91,-0.73,0.86,0.01,-0.01,0.01
7:25:19 PM,8.88,-0.73,0.91,0.01,-0.03,0.01
7:25:19 PM,8.88,-0.71,0.88,0.01,0.00,0.01
7:25:19 PM,8.92,-0.72,0.90,0.02,0.01,0.01
7:25:19 PM,8.90,-0.69,0.92,0.01,-0.01,0.01
7:25:19 PM,8.93,-0.68,0.85,0.01,-0.02,0.01
7:25:19 PM,8.94,-0.69,0.82,0.00,-0.02,0.01
7:25:20 PM,8.90,-0.73,0.87,0.00,-0.01,0.01
7:25:20 PM,8.94,-0.77,0.89,0.01,-0.03,0.01
7:25:20 PM,8.91,-0.72,0.84,0.02,-0.00,0.01
7:25:20 PM,8.96,-0.70,0.86,0.02,-0.02,0.01
7:25:20 PM,8.91,-0.71,0.81,0.01,-0.03,0.01
7:25:20 PM,8.93,-0.72,0.83,0.00,-0.04,0.01
7:25:20 PM,8.96,-0.70,0.86,0.00,-0.03,0.01
7:25:20 PM,8.88,-0.71,0.89,0.00,-0.02,0.01
7:25:20 PM,8.94,-0.70,0.84,-0.00,-0.04,0.01
7:25:21 PM,8.93,-0.71,0.88,0.00,-0.02,0.01
7:25:21 PM,8.88,-0.71,0.96,0.01,-0.03,0.01
7:25:21 PM,8.89,-0.69,0.93,0.01,-0.01,0.01
7:25:21 PM,8.91,-0.70,0.85,0.01,-0.03,0.01
7:25:21 PM,8.90,-0.72,0.90,0.01,-0.00,0.01
7:25:21 PM,8.93,-0.74,0.83,0.01,-0.01,0.01
7:25:21 PM,8.94,-0.72,0.87,0.02,-0.02,0.01
7:25:21 PM,8.90,-0.74,0.86,0.01,0.00,0.01
7:25:21 PM,8.93,-0.74,0.82,0.01,-0.03,0.01
7:25:21 PM,8.97,-0.76,0.82,0.02,-0.00,0.01
7:25:22 PM,8.96,-0.73,0.82,0.02,0.01,0.01
7:25:22 PM,8.95,-0.69,0.85,0.01,-0.01,0.01
7:25:22 PM,8.87,-0.71,0.92,0.01,-0.01,0.01
7:25:22 PM,8.87,-0.71,0.92,0.01,-0.02,0.01
7:25:22 PM,8.89,-0.74,0.88,0.01,-0.01,0.01
7:25:22 PM,8.95,-0.71,0.85,0.01,-0.02,0.01
7:25:22 PM,8.94,-0.72,0.83,-0.00,-0.06,0.01
7:25:22 PM,8.88,-0.74,0.88,0.01,-0.03,0.01
7:25:22 PM,8.88,-0.74,0.89,0.01,-0.02,0.01
7:25:23 PM,8.97,-0.70,0.84,0.01,-0.01,0.01
7:25:23 PM,9.00,-0.75,0.85,0.00,-0.02,0.01
7:25:23 PM,8.94,-0.73,0.81,0.02,-0.00,0.01
7:25:23 PM,8.93,-0.73,0.85,0.02,-0.01,0.01
7:25:23 PM,8.95,-0.70,0.85,0.02,-0.01,0.01
7:25:23 PM,8.93,-0.74,0.85,0.01,-0.02,0.01
7:25:23 PM,8.93,-0.70,0.83,0.02,-0.01,0.01
7:25:23 PM,8.88,-0.70,0.88,0.02,0.01,0.01
7:25:23 PM,8.92,-0.71,0.92,0.02,-0.01,0.01
7:25:23 PM,8.87,-0.73,0.90,0.02,0.01,0.01
7:25:24 PM,8.89,-0.74,0.90,0.02,-0.01,0.01
7:25:24 PM,8.95,-0.73,0.79,0.01,-0.02,0.01
7:25:24 PM,8.95,-0.74,0.83,0.01,-0.02,0.01
7:25:24 PM,8.90,-0.74,0.84,0.02,-0.00,0.01
7:25:24 PM,8.91,-0.72,0.85,0.01,-0.02,0.01
7:25:24 PM,8.93,-0.75,0.85,0.01,-0.01,0.01
7:25:24 PM,8.97,-0.71,0.82,0.01,-0.01,0.01
7:25:24 PM,8.98,-0.71,0.84,0.02,0.00,0.01
7:25:24 PM,8.96,-0.72,0.79,0.02,-0.01,0.01
7:25:25 PM,8.97,-0.68,0.83,0.01,-0.01,0.01
7:25:25 PM,8.92,-0.69,0.82,0.00,-0.02,0.01
7:25:25 PM,8.90,-0.67,0.86,-0.00,-0.04,0.01
7:25:25 PM,8.88,-0.70,0.91,0.00,-0.02,0.01
7:25:25 PM,8.90,-0.73,0.91,0.01,-0.01,0.01
7:25:25 PM,8.88,-0.72,0.89,0.01,0.00,0.01
7:25:25 PM,8.90,-0.72,0.87,0.01,-0.01,0.01
7:25:25 PM,8.93,-0.71,0.81,0.01,-0.01,0.01
7:25:25 PM,8.90,-0.72,0.89,0.02,0.01,0.01
7:25:26 PM,8.91,-0.70,0.81,0.02,0.02,0.01
7:25:26 PM,8.94,-0.71,0.83,0.01,-0.01,0.01
7:25:26 PM,8.96,-0.70,0.82,0.00,-0.04,0.01
7:25:26 PM,8.94,-0.71,0.81,0.00,-0.02,0.01
7:25:26 PM,8.95,-0.72,0.86,0.01,-0.02,0.01
7:25:26 PM,8.89,-0.72,0.85,0.02,0.00,0.01
7:25:26 PM,8.96,-0.72,0.80,0.01,-0.02,0.01
7:25:26 PM,8.92,-0.67,0.85,0.00,-0.02,0.01
7:25:26 PM,8.88,-0.70,0.89,0.00,-0.02,0.01
7:25:26 PM,8.82,-0.74,0.91,0.01,-0.03,0.01
7:25:27 PM,8.90,-0.70,0.83,0.01,-0.02,0.01
7:25:27 PM,8.93,-0.69,0.82,0.00,-0.01,0.01
7:25:27 PM,8.92,-0.70,0.83,0.01,-0.03,0.01
7:25:27 PM,8.87,-0.71,0.90,0.01,-0.03,0.01
7:25:27 PM,8.90,-0.70,0.88,0.01,-0.02,0.01
7:25:27 PM,8.93,-0.71,0.89,0.01,-0.01,0.01
7:25:27 PM,8.96,-0.73,0.85,0.02,0.01,0.01
7:25:27 PM,8.93,-0.72,0.83,0.03,0.02,0.01
7:25:27 PM,8.92,-0.70,0.88,0.03,0.01,0.01
7:25:28 PM,8.94,-0.70,0.86,0.03,0.02,0.01
7:25:28 PM,8.88,-0.73,0.88,0.02,0.00,0.01
7:25:28 PM,8.92,-0.75,0.88,0.01,-0.01,0.01
7:25:28 PM,8.94,-0.71,0.85,0.03,0.01,0.01
7:25:28 PM,8.96,-0.74,0.81,0.02,0.01,0.01
7:25:28 PM,8.97,-0.71,0.82,0.01,-0.02,0.01
7:25:28 PM,8.94,-0.69,0.87,0.01,-0.02,0.01
7:25:28 PM,8.92,-0.73,0.88,0.01,-0.01,0.01
7:25:28 PM,8.89,-0.72,0.84,0.00,-0.03,0.01
7:25:28 PM,8.88,-0.73,0.84,0.00,-0.01,0.01
7:25:29 PM,8.97,-0.71,0.80,0.01,-0.01,0.01
7:25:29 PM,8.96,-0.69,0.79,-0.00,-0.03,0.01
7:25:29 PM,8.92,-0.71,0.86,0.00,-0.03,0.01
7:25:29 PM,8.98,-0.70,0.73,-0.01,-0.05,0.01
7:25:29 PM,8.98,-0.71,0.77,-0.01,-0.06,0.01
7:25:29 PM,9.01,-0.72,0.66,-0.02,-0.08,0.01
7:25:29 PM,8.93,-0.73,0.79,-0.02,-0.07,0.01
7:25:29 PM,8.96,-0.75,0.79,-0.01,-0.06,0.01
7:25:29 PM,8.99,-0.72,0.80,-0.01,-0.06,0.01
7:25:30 PM,8.98,-0.71,0.79,-0.01,-0.05,0.01
7:25:30 PM,8.92,-0.71,0.79,-0.01,-0.05,0.01
7:25:30 PM,8.87,-0.70,0.80,-0.02,-0.09,0.01
7:25:30 PM,8.99,-0.67,0.74,-0.03,-0.09,0.01
7:25:30 PM,8.96,-0.69,0.79,-0.04,-0.11,0.01
7:25:30 PM,8.82,-0.69,0.87,-0.03,-0.10,0.01
7:25:30 PM,8.83,-0.76,0.95,-0.00,-0.04,0.01
7:25:30 PM,8.82,-0.69,0.95,0.00,-0.02,0.01
7:25:30 PM,8.82,-0.72,0.94,0.00,-0.02,0.01
7:25:30 PM,8.84,-0.71,0.96,0.00,-0.02,0.01
7:25:31 PM,8.79,-0.68,0.96,0.01,-0.01,0.01
7:25:31 PM,8.82,-0.71,0.92,0.00,-0.01,0.01
7:25:31 PM,8.84,-0.69,0.95,0.00,-0.04,0.01
7:25:31 PM,8.85,-0.72,0.96,0.02,-0.01,0.01
7:25:31 PM,8.90,-0.73,0.86,0.02,0.02,0.01
7:25:31 PM,8.93,-0.72,0.83,0.01,-0.01,0.01
7:25:31 PM,8.86,-0.74,0.88,0.01,0.00,0.01
7:25:31 PM,8.88,-0.74,0.89,0.01,0.02,0.01
7:25:31 PM,8.92,-0.77,0.85,0.03,0.03,0.01
7:25:32 PM,8.94,-0.71,0.86,0.03,0.01,0.01
7:25:32 PM,8.88,-0.73,0.79,-0.00,-0.03,0.01
7:25:32 PM,8.98,-0.72,0.86,0.01,-0.02,0.01
7:25:32 PM,8.94,-0.74,0.80,0.01,-0.02,0.01
7:25:32 PM,8.89,-0.74,0.89,0.00,-0.03,0.01
7:25:32 PM,8.89,-0.73,0.85,0.01,-0.04,0.01
7:25:32 PM,8.90,-0.76,0.74,-0.01,-0.05,0.01
7:25:32 PM,8.98,-0.76,0.80,-0.00,-0.04,0.01
7:25:32 PM,8.93,-0.73,0.84,0.01,-0.00,0.01
7:25:32 PM,8.93,-0.73,0.85,0.02,0.01,0.01
7:25:33 PM,8.96,-0.73,0.86,0.03,0.02,0.01
7:25:33 PM,9.00,-0.76,0.83,0.04,0.05,0.01
7:25:33 PM,9.05,-0.70,0.71,0.03,0.01,0.01
7:25:33 PM,8.94,-0.76,0.86,0.03,0.04,0.01
7:25:33 PM,8.99,-0.73,0.79,0.02,0.00,0.01
7:25:33 PM,8.97,-0.69,0.82,0.01,-0.01,0.01
7:25:33 PM,8.96,-0.77,0.83,0.01,-0.02,0.01
7:25:33 PM,8.96,-0.70,0.82,0.01,-0.00,0.01
7:25:33 PM,8.93,-0.72,0.87,-0.01,-0.01,0.01
7:25:34 PM,8.96,-0.72,0.85,0.01,0.00,0.01
7:25:34 PM,8.94,-0.72,0.80,0.01,-0.02,0.01
7:25:34 PM,8.97,-0.74,0.79,0.02,0.02,0.01
7:25:34 PM,9.05,-0.66,0.69,-0.01,-0.04,0.01
7:25:34 PM,8.83,-0.74,1.02,-0.01,-0.02,0.01
7:25:34 PM,8.91,-0.74,1.00,0.03,0.04,0.01
7:25:34 PM,8.98,-0.72,0.84,0.06,-0.01,0.01
7:25:34 PM,8.93,-0.74,0.87,0.03,0.05,0.01
7:25:34 PM,8.97,-0.73,0.81,0.02,0.02,0.01
7:25:34 PM,8.94,-0.71,0.81,0.02,0.01,0.01
7:25:35 PM,8.95,-0.68,0.81,0.02,-0.01,0.01
7:25:35 PM,8.90,-0.71,0.92,0.02,-0.01,0.01
7:25:35 PM,8.83,-0.74,0.91,0.03,0.05,0.01
7:25:35 PM,8.82,-0.68,0.94,0.02,0.01,0.01
7:25:35 PM,8.90,-0.74,0.88,0.02,-0.02,0.01
7:25:35 PM,8.97,-0.67,0.82,0.01,-0.01,0.01
7:25:35 PM,8.94,-0.71,0.77,0.01,-0.02,0.01
7:25:35 PM,8.96,-0.70,0.81,0.01,-0.05,0.01
7:25:35 PM,8.92,-0.73,0.76,0.01,-0.04,0.01
7:25:36 PM,8.86,-0.71,0.86,0.02,-0.00,0.01
7:25:36 PM,8.85,-0.73,0.90,0.02,0.02,0.01
7:25:36 PM,8.96,-0.72,0.79,0.01,-0.03,0.01
7:25:36 PM,8.92,-0.72,0.79,-0.00,-0.06,0.01
7:25:36 PM,8.76,-0.72,0.98,0.02,-0.02,0.01
7:25:36 PM,8.78,-0.73,1.01,0.05,0.07,0.01
7:25:36 PM,8.95,-0.70,0.84,0.05,0.08,0.01
7:25:36 PM,8.94,-0.76,0.90,0.07,0.12,0.01
7:25:36 PM,8.48,-0.55,0.54,-0.01,-0.07,0.01
7:25:37 PM,8.34,-0.75,1.24,0.01,0.00,0.01
7:25:37 PM,8.67,-0.76,1.21,0.07,0.11,0.01
7:25:37 PM,8.99,-0.73,0.73,0.07,0.07,0.01
7:25:37 PM,9.05,-0.71,0.74,0.02,-0.00,0.01
7:25:37 PM,8.88,-0.64,0.85,-0.01,-0.04,0.01
7:25:37 PM,7.87,-0.57,1.53,-0.06,-0.17,0.01
7:25:37 PM,8.35,-0.67,1.36,0.03,0.09,0.01
7:25:37 PM,8.60,-0.72,1.27,0.09,0.15,0.01
7:25:37 PM,9.00,-0.66,0.60,0.05,0.08,0.01
7:25:37 PM,9.01,-0.68,0.78,-0.02,-0.09,0.01
7:25:38 PM,9.00,-0.66,0.76,-0.01,-0.06,0.01
7:25:38 PM,8.94,-0.75,0.92,-0.00,-0.05,0.01
7:25:38 PM,8.88,-0.72,0.95,0.03,0.06,0.01
7:25:38 PM,8.92,-0.71,0.84,0.02,0.03,0.01
7:25:38 PM,8.98,-0.72,0.79,0.00,-0.04,0.01
7:25:38 PM,9.05,-0.73,0.75,-0.00,-0.03,0.01
7:25:38 PM,8.99,-0.76,0.82,0.02,-0.00,0.01
7:25:38 PM,8.87,-0.72,0.88,0.03,0.02,0.01
7:25:38 PM,8.92,-0.74,0.79,0.02,0.01,0.01
7:25:39 PM,8.93,-0.74,0.86,0.03,0.01,0.01
7:25:39 PM,8.83,-0.72,0.96,0.04,0.01,0.01
7:25:39 PM,8.92,-0.71,0.89,0.04,0.04,0.01
7:25:39 PM,8.96,-0.74,0.85,0.04,0.08,0.01
7:25:39 PM,8.85,-0.70,0.85,0.02,0.02,0.01
7:25:39 PM,8.84,-0.67,0.91,0.01,-0.02,0.01
7:25:39 PM,8.81,-0.71,0.95,-0.00,-0.05,0.01
7:25:39 PM,8.83,-0.70,0.91,0.00,-0.05,0.01
7:25:39 PM,8.91,-0.72,0.85,0.01,-0.03,0.01
7:25:39 PM,8.94,-0.73,0.78,0.00,-0.04,0.01
7:25:40 PM,8.92,-0.72,0.84,-0.00,-0.03,0.01
7:25:40 PM,8.91,-0.71,0.88,0.01,-0.01,0.01
7:25:40 PM,8.90,-0.73,0.86,0.01,-0.02,0.01
7:25:40 PM,8.90,-0.71,0.85,0.02,-0.00,0.01
7:25:40 PM,8.92,-0.76,0.88,0.01,-0.01,0.01
7:25:40 PM,8.89,-0.73,0.86,0.02,0.00,0.01
7:25:40 PM,8.88,-0.70,0.81,0.01,-0.01,0.01
7:25:40 PM,8.88,-0.71,0.84,0.01,-0.01,0.01
7:25:40 PM,8.93,-0.72,0.88,0.01,-0.01,0.01
7:25:41 PM,8.95,-0.67,0.82,0.01,-0.02,0.01
7:25:41 PM,8.94,-0.74,0.79,0.01,-0.02,0.01
7:25:41 PM,8.98,-0.71,0.77,0.01,-0.02,0.01
7:25:41 PM,9.03,-0.70,0.78,0.01,-0.01,0.01
7:25:41 PM,8.92,-0.67,0.83,-0.00,-0.03,0.01
7:25:41 PM,8.95,-0.71,0.85,0.00,-0.02,0.01
7:25:41 PM,8.92,-0.70,0.89,0.01,0.01,0.01
7:25:41 PM,8.87,-0.73,0.91,0.02,-0.00,0.01
7:25:41 PM,8.94,-0.74,0.82,0.01,0.00,0.01
7:25:41 PM,8.99,-0.72,0.77,-0.00,-0.03,0.01
7:25:42 PM,8.94,-0.76,0.81,-0.01,-0.02,0.01
7:25:42 PM,8.95,-0.73,0.81,-0.00,-0.03,0.01
7:25:42 PM,8.99,-0.73,0.79,0.00,-0.04,0.01
7:25:42 PM,8.97,-0.74,0.78,0.01,-0.01,0.01
7:25:42 PM,8.89,-0.73,0.88,0.03,0.01,0.01
7:25:42 PM,8.94,-0.75,0.89,0.03,0.02,0.01
7:25:42 PM,8.88,-0.72,0.92,0.03,0.01,0.01
7:25:42 PM,8.89,-0.73,0.87,0.02,0.01,0.01
7:25:42 PM,8.89,-0.71,0.91,0.01,-0.03,0.01
7:25:43 PM,8.91,-0.72,0.87,0.01,-0.04,0.01
7:25:43 PM,8.98,-0.68,0.88,0.02,-0.02,0.01
7:25:43 PM,8.93,-0.68,0.85,0.02,-0.00,0.01
7:25:43 PM,8.86,-0.69,0.89,0.01,-0.02,0.01
7:25:43 PM,8.86,-0.71,0.91,0.00,-0.04,0.01
7:25:43 PM,8.89,-0.72,0.84,-0.00,-0.05,0.01
7:25:43 PM,8.87,-0.70,0.81,-0.00,-0.05,0.01
7:25:43 PM,8.95,-0.72,0.84,0.00,-0.03,0.01
7:25:43 PM,8.96,-0.70,0.77,0.00,-0.04,0.01
7:25:43 PM,8.93,-0.68,0.84,-0.01,-0.04,0.01
7:25:44 PM,8.88,-0.70,0.85,-0.01,-0.04,0.01
7:25:44 PM,8.90,-0.70,0.90,0.00,-0.02,0.01
7:25:44 PM,8.91,-0.73,0.88,0.01,-0.04,0.01
7:25:44 PM,8.86,-0.70,0.90,0.00,-0.03,0.01
7:25:44 PM,8.90,-0.71,0.87,0.00,-0.03,0.01
7:25:44 PM,8.86,-0.71,0.89,-0.00,-0.04,0.01
7:25:44 PM,8.94,-0.71,0.88,0.01,-0.01,0.01
7:25:44 PM,8.92,-0.69,0.89,0.00,-0.04,0.01
7:25:44 PM,8.92,-0.72,0.91,0.02,0.00,0.01
7:25:45 PM,8.90,-0.73,0.90,0.01,-0.01,0.01
7:25:45 PM,8.92,-0.73,0.89,0.03,0.00,0.01
7:25:45 PM,8.89,-0.67,0.82,0.00,-0.00,0.01
7:25:45 PM,8.98,-0.71,0.81,-0.01,-0.05,0.01
7:25:45 PM,8.94,-0.70,0.89,0.01,-0.03,0.01
7:25:45 PM,8.89,-0.73,0.82,0.00,-0.03,0.01
7:25:45 PM,8.95,-0.74,0.87,0.01,-0.01,0.01
7:25:45 PM,8.84,-0.74,0.92,0.01,-0.00,0.01
7:25:45 PM,8.91,-0.75,0.80,0.02,0.01,0.01
7:25:45 PM,8.89,-0.73,0.89,0.01,0.01,0.01
7:25:46 PM,8.97,-0.73,0.90,0.03,0.02,0.01
7:25:46 PM,8.99,-0.68,0.77,0.02,0.01,0.01
7:25:46 PM,8.90,-0.71,0.80,0.00,-0.06,0.01
7:25:46 PM,8.92,-0.70,0.88,-0.01,-0.02,0.01
7:25:46 PM,8.91,-0.68,0.86,0.01,-0.03,0.01
7:25:46 PM,8.91,-0.73,0.85,0.02,-0.01,0.01
7:25:46 PM,8.93,-0.72,0.88,0.03,0.03,0.01
7:25:46 PM,8.95,-0.75,0.92,0.04,0.06,0.01
7:25:46 PM,8.86,-0.71,0.84,0.02,-0.01,0.01
7:25:47 PM,8.86,-0.70,0.89,0.01,-0.01,0.01
7:25:47 PM,8.92,-0.66,0.83,0.00,-0.05,0.01
7:25:47 PM,8.88,-0.72,0.89,-0.02,-0.08,0.01
7:25:47 PM,8.89,-0.68,0.69,-0.03,-0.07,0.01
7:25:47 PM,8.97,-0.68,0.84,-0.04,-0.13,0.01
7:25:47 PM,9.19,-0.79,0.65,0.00,-0.03,0.01
7:25:47 PM,8.92,-0.76,0.85,0.04,0.04,0.01
7:25:47 PM,9.01,-0.72,0.69,-0.01,-0.06,0.01
7:25:47 PM,8.91,-0.72,0.81,-0.03,-0.08,0.01
7:25:47 PM,8.94,-0.74,0.88,-0.00,-0.03,0.01
7:25:48 PM,8.89,-0.68,0.90,0.01,0.01,0.01
7:25:48 PM,8.91,-0.72,0.84,0.01,-0.02,0.01
7:25:48 PM,8.94,-0.70,0.85,0.01,-0.03,0.01
7:25:48 PM,8.94,-0.69,0.83,0.00,-0.03,0.01
7:25:48 PM,8.92,-0.70,0.81,-0.00,-0.02,0.01
7:25:48 PM,8.93,-0.71,0.83,0.01,-0.04,0.01
7:25:48 PM,8.97,-0.71,0.76,0.01,-0.01,0.01
7:25:48 PM,8.90,-0.70,0.82,0.01,-0.04,0.01
7:25:48 PM,8.83,-0.72,0.88,0.02,-0.01,0.01
7:25:49 PM,8.90,-0.70,0.88,0.00,-0.01,0.01
7:25:49 PM,8.93,-0.72,0.87,0.02,0.02,0.01
7:25:49 PM,9.00,-0.70,0.76,0.02,-0.01,0.01
7:25:49 PM,8.94,-0.71,0.85,0.01,-0.02,0.01
7:25:49 PM,8.89,-0.72,0.82,0.01,0.00,0.01
7:25:49 PM,8.93,-0.70,0.83,0.01,-0.03,0.01
7:25:49 PM,8.89,-0.70,0.85,0.01,-0.01,0.01
7:25:49 PM,8.99,-0.68,0.72,0.02,-0.03,0.01
7:25:49 PM,9.01,-0.71,0.76,0.00,-0.04,0.01
7:25:50 PM,8.88,-0.70,0.87,0.01,-0.00,0.01
7:25:50 PM,8.88,-0.72,0.91,0.02,0.01,0.01
7:25:50 PM,8.83,-0.74,0.90,0.04,0.04,0.01
7:25:50 PM,8.88,-0.65,0.86,0.03,0.00,0.01
7:25:50 PM,8.99,-0.69,0.72,0.01,-0.01,0.01
7:25:50 PM,8.98,-0.68,0.75,0.01,-0.04,0.01
7:25:50 PM,8.93,-0.70,0.88,0.02,-0.02,0.01
7:25:50 PM,8.82,-0.74,1.00,0.06,0.10,0.01
7:25:50 PM,8.83,-0.73,1.01,0.05,0.08,0.01
7:25:50 PM,9.04,-0.68,0.79,0.05,0.04,0.01
7:25:51 PM,8.93,-0.73,0.75,0.01,-0.01,0.01
7:25:51 PM,8.94,-0.68,0.81,0.00,-0.05,0.01
7:25:51 PM,8.93,-0.71,0.87,0.01,-0.02,0.01
7:25:51 PM,8.97,-0.75,0.75,0.01,-0.00,0.01
7:25:51 PM,9.20,-0.66,0.50,0.03,0.06,0.01
7:25:51 PM,8.42,-0.52,1.21,-0.04,-0.46,0.01
7:25:51 PM,8.13,-0.71,1.31,0.03,0.06,0.01
7:25:51 PM,8.96,-0.70,0.81,0.01,0.04,0.01
7:25:51 PM,9.04,-0.65,0.66,0.00,-0.03,0.01
7:25:52 PM,8.94,-0.69,0.78,-0.01,-0.06,0.01
7:25:52 PM,8.92,-0.73,0.79,-0.01,-0.04,0.01
7:25:52 PM,8.91,-0.74,0.80,0.01,-0.02,0.01
7:25:52 PM,9.00,-0.71,0.74,0.01,-0.02,0.01
7:25:52 PM,8.91,-0.74,0.83,0.03,0.03,0.01
7:25:52 PM,8.92,-0.67,0.79,0.03,0.03,0.01
7:25:52 PM,9.00,-0.70,0.80,0.03,0.00,0.01
7:25:52 PM,8.94,-0.68,0.79,0.02,-0.02,0.01
7:25:52 PM,8.99,-0.69,0.76,0.00,-0.03,0.01
7:25:52 PM,8.95,-0.71,0.80,0.01,-0.01,0.01
7:25:53 PM,8.99,-0.68,0.82,0.02,-0.01,0.01
7:25:53 PM,8.89,-0.70,0.85,0.02,0.02,0.01
7:25:53 PM,9.00,-0.69,0.74,0.03,-0.01,0.01
7:25:53 PM,8.95,-0.71,0.77,0.01,-0.02,0.01
7:25:53 PM,8.96,-0.74,0.82,0.01,-0.02,0.01
7:25:53 PM,8.92,-0.72,0.82,0.02,0.01,0.01
7:25:53 PM,8.98,-0.69,0.80,0.02,0.00,0.01
7:25:53 PM,8.94,-0.66,0.76,0.02,-0.01,0.01
7:25:53 PM,8.91,-0.67,0.76,0.02,-0.02,0.01
7:25:54 PM,8.90,-0.69,0.81,0.01,-0.02,0.01
7:25:54 PM,8.94,-0.68,0.85,0.01,-0.01,0.01
7:25:54 PM,8.98,-0.68,0.76,0.00,-0.03,0.01
7:25:54 PM,8.94,-0.68,0.81,0.00,-0.02,0.01
7:25:54 PM,8.94,-0.72,0.77,0.01,-0.01,0.01
7:25:54 PM,8.93,-0.70,0.76,0.01,-0.02,0.01
7:25:54 PM,8.94,-0.72,0.78,-0.00,-0.04,0.01
7:25:54 PM,8.93,-0.73,0.78,0.00,-0.01,0.01
7:25:54 PM,8.91,-0.70,0.81,0.01,-0.01,0.01
7:25:54 PM,8.90,-0.69,0.82,0.01,-0.01,0.01
7:25:55 PM,8.90,-0.69,0.79,0.00,-0.04,0.01
7:25:55 PM,8.94,-0.68,0.85,0.01,-0.01,0.01
7:25:55 PM,8.91,-0.69,0.85,0.01,-0.02,0.01
7:25:55 PM,8.95,-0.71,0.79,0.01,-0.01,0.01
7:25:55 PM,8.92,-0.72,0.74,0.03,0.01,0.01
7:25:55 PM,9.03,-0.70,0.75,0.04,0.04,0.01
7:25:55 PM,8.99,-0.68,0.78,0.02,-0.01,0.01
7:25:55 PM,8.94,-0.68,0.75,0.01,-0.01,0.01
7:25:55 PM,8.93,-0.71,0.82,0.01,-0.03,0.01
7:25:56 PM,8.92,-0.69,0.77,0.01,-0.01,0.01
7:25:56 PM,8.92,-0.69,0.79,0.01,-0.03,0.01
7:25:56 PM,8.93,-0.71,0.76,0.02,0.01,0.01
7:25:56 PM,8.93,-0.69,0.80,0.02,0.01,0.01
7:25:56 PM,8.96,-0.67,0.73,0.00,-0.01,0.01
7:25:56 PM,8.92,-0.69,0.78,0.01,-0.02,0.01
7:25:56 PM,8.95,-0.68,0.71,0.01,-0.02,0.01
7:25:56 PM,8.93,-0.68,0.76,0.01,-0.03,0.01
7:25:56 PM,8.95,-0.68,0.73,0.00,-0.04,0.01
7:25:56 PM,8.94,-0.67,0.77,0.01,-0.02,0.01
7:25:57 PM,8.98,-0.70,0.70,0.01,-0.03,0.01
7:25:57 PM,8.91,-0.71,0.76,0.00,-0.02,0.01
7:25:57 PM,8.91,-0.69,0.81,0.02,-0.01,0.01
7:25:57 PM,8.92,-0.71,0.82,0.02,0.01,0.01
7:25:57 PM,8.91,-0.69,0.71,0.01,-0.04,0.01
7:25:57 PM,8.88,-0.69,0.79,0.00,-0.02,0.01
7:25:57 PM,8.96,-0.70,0.76,0.01,-0.00,0.01
7:25:57 PM,8.93,-0.65,0.71,0.01,-0.01,0.01
7:25:57 PM,8.87,-0.67,0.79,-0.00,-0.03,0.01
7:25:58 PM,8.92,-0.71,0.80,0.01,-0.01,0.01
7:25:58 PM,8.95,-0.68,0.70,0.01,-0.02,0.01
7:25:58 PM,8.95,-0.71,0.75,0.01,-0.02,0.01
7:25:58 PM,8.90,-0.70,0.70,0.01,-0.02,0.01
7:25:58 PM,8.90,-0.70,0.68,0.02,-0.01,0.01
7:25:58 PM,8.95,-0.70,0.72,0.02,0.00,0.01
7:25:58 PM,9.04,-0.68,0.66,0.02,-0.01,0.01
7:25:58 PM,8.91,-0.68,0.73,0.01,-0.01,0.01
7:25:58 PM,8.98,-0.68,0.73,0.00,-0.03,0.01
7:25:58 PM,8.95,-0.67,0.75,0.02,-0.01,0.01
7:25:59 PM,8.98,-0.67,0.67,0.02,-0.01,0.01
7:25:59 PM,8.96,-0.69,0.70,0.01,-0.02,0.01
7:25:59 PM,8.98,-0.67,0.71,0.01,-0.02,0.01
7:25:59 PM,8.98,-0.67,0.72,0.01,-0.03,0.01
7:25:59 PM,8.99,-0.71,0.70,0.01,-0.04,0.01
7:25:59 PM,8.94,-0.68,0.76,0.02,-0.00,0.01
7:25:59 PM,8.95,-0.68,0.75,0.01,0.01,0.01
7:25:59 PM,8.93,-0.70,0.75,0.02,0.00,0.01
7:25:59 PM,8.96,-0.69,0.68,0.01,-0.01,0.01
7:26:00 PM,8.99,-0.67,0.71,0.00,-0.03,0.01
7:26:00 PM,8.95,-0.67,0.76,0.01,-0.05,0.01
7:26:00 PM,8.93,-0.70,0.73,0.00,-0.02,0.01
7:26:00 PM,8.97,-0.67,0.67,0.01,-0.02,0.01
7:26:00 PM,9.04,-0.67,0.60,0.00,-0.04,0.01
7:26:00 PM,8.98,-0.67,0.61,0.01,-0.04,0.01
7:26:00 PM,8.94,-0.70,0.70,0.01,-0.02,0.01
7:26:00 PM,8.99,-0.69,0.68,0.01,0.01,0.01
7:26:00 PM,8.95,-0.69,0.68,0.02,-0.02,0.01
7:26:01 PM,8.95,-0.66,0.65,0.01,-0.02,0.01
7:26:01 PM,8.92,-0.70,0.71,0.01,-0.00,0.01
7:26:01 PM,8.93,-0.67,0.73,0.01,-0.04,0.01
7:26:01 PM,8.97,-0.66,0.67,0.01,0.00,0.01
7:26:01 PM,8.96,-0.68,0.74,0.01,-0.01,0.01
7:26:01 PM,8.89,-0.68,0.72,-0.02,-0.06,0.01
7:26:01 PM,8.90,-0.71,0.72,-0.01,-0.04,0.01
7:26:01 PM,8.98,-0.67,0.68,-0.01,-0.04,0.01
7:26:01 PM,9.01,-0.68,0.64,-0.00,-0.04,0.01
7:26:01 PM,8.97,-0.68,0.73,0.01,-0.05,0.01
7:26:02 PM,8.98,-0.70,0.68,0.01,0.00,0.01
7:26:02 PM,9.00,-0.67,0.65,0.01,-0.01,0.01
7:26:02 PM,8.96,-0.69,0.71,-0.00,-0.04,0.01
7:26:02 PM,8.97,-0.68,0.69,0.00,-0.02,0.01
7:26:02 PM,9.00,-0.71,0.67,0.01,-0.00,0.01
7:26:02 PM,8.99,-0.70,0.65,0.01,-0.02,0.01
7:26:02 PM,8.94,-0.63,0.69,0.00,-0.02,0.01
7:26:02 PM,8.95,-0.63,0.73,-0.00,-0.05,0.01
7:26:02 PM,8.93,-0.69,0.63,-0.00,-0.05,0.01
7:26:03 PM,8.94,-0.73,0.73,0.01,-0.03,0.01
7:26:03 PM,8.97,-0.68,0.61,0.00,-0.02,0.01
7:26:03 PM,8.90,-0.69,0.74,0.02,-0.00,0.01
7:26:03 PM,8.91,-0.66,0.68,-0.00,-0.05,0.01
7:26:03 PM,8.99,-0.67,0.67,0.01,-0.04,0.01
7:26:03 PM,8.90,-0.69,0.69,0.01,-0.01,0.01
7:26:03 PM,8.92,-0.71,0.78,0.02,0.03,0.01
7:26:03 PM,8.93,-0.69,0.59,0.02,0.02,0.01
7:26:03 PM,9.03,-0.67,0.65,0.01,-0.02,0.01
7:26:03 PM,8.90,-0.68,0.70,0.02,-0.01,0.01
7:26:04 PM,8.91,-0.67,0.66,-0.00,-0.03,0.01
7:26:04 PM,8.91,-0.71,0.80,0.03,0.00,0.01
7:26:04 PM,8.95,-0.66,0.75,0.03,-0.03,0.01
7:26:04 PM,8.82,-0.71,0.84,0.06,0.07,0.01
7:26:04 PM,8.91,-0.71,0.75,0.05,0.08,0.01
7:26:04 PM,9.06,-0.67,0.50,0.01,-0.01,0.01
7:26:04 PM,9.06,-0.73,0.53,-0.01,-0.04,0.01
7:26:04 PM,8.91,-0.65,0.71,0.01,-0.04,0.01
7:26:04 PM,8.80,-0.70,0.85,0.01,-0.02,0.01
7:26:05 PM,8.92,-0.67,0.69,0.01,-0.04,0.01
7:26:05 PM,9.18,-0.66,0.41,0.01,-0.00,0.01
7:26:05 PM,9.19,-0.67,0.37,-0.03,-0.06,0.01
7:26:05 PM,9.09,-0.73,0.55,-0.03,-0.06,0.01
7:26:05 PM,9.01,-0.68,0.54,-0.00,-0.05,0.01
7:26:05 PM,9.18,-0.66,0.42,-0.03,-0.12,0.01
7:26:05 PM,9.06,-0.68,0.61,-0.02,-0.05,0.01
7:26:05 PM,9.09,-0.68,0.61,0.00,-0.01,0.01
7:26:05 PM,9.04,-0.68,0.66,0.02,0.02,0.01
7:26:05 PM,9.03,-0.70,0.68,0.02,0.03,0.01
7:26:06 PM,9.02,-0.70,0.65,0.02,0.03,0.01
7:26:06 PM,8.98,-0.64,0.67,0.02,-0.01,0.01
7:26:06 PM,8.88,-0.70,0.73,0.01,0.01,0.01
7:26:06 PM,8.91,-0.69,0.73,0.01,0.00,0.01
7:26:06 PM,8.87,-0.68,0.83,0.01,-0.01,0.01
7:26:06 PM,8.93,-0.68,0.72,0.00,-0.02,0.01
7:26:06 PM,8.89,-0.68,0.83,0.01,-0.03,0.01
7:26:06 PM,8.90,-0.69,0.74,0.02,0.01,0.01
7:26:06 PM,9.01,-0.66,0.70,0.02,0.01,0.01
7:26:07 PM,8.98,-0.68,0.75,0.02,-0.01,0.01
7:26:07 PM,8.92,-0.69,0.72,0.01,-0.01,0.01
7:26:07 PM,8.98,-0.67,0.74,0.02,0.00,0.01
7:26:07 PM,8.96,-0.68,0.74,0.00,-0.01,0.01
7:26:07 PM,8.99,-0.69,0.68,0.02,0.00,0.01
7:26:07 PM,8.99,-0.65,0.70,0.01,-0.02,0.01
7:26:07 PM,8.94,-0.65,0.72,0.01,-0.01,0.01
7:26:07 PM,9.00,-0.63,0.61,0.00,-0.03,0.01
7:26:07 PM,9.01,-0.67,0.68,-0.00,-0.05,0.01
7:26:07 PM,8.97,-0.70,0.67,0.00,-0.02,0.01
7:26:08 PM,8.99,-0.66,0.68,0.00,-0.04,0.01
7:26:08 PM,9.00,-0.62,0.69,0.02,-0.01,0.01
7:26:08 PM,8.94,-0.64,0.72,0.02,-0.00,0.01
7:26:08 PM,8.90,-0.68,0.70,0.01,0.01,0.01
7:26:08 PM,8.98,-0.68,0.65,0.01,-0.01,0.01
7:26:08 PM,8.97,-0.67,0.68,0.01,-0.01,0.01
7:26:08 PM,8.99,-0.71,0.74,0.02,-0.00,0.01
7:26:08 PM,8.95,-0.71,0.75,0.02,0.02,0.01
7:26:08 PM,8.92,-0.69,0.70,0.02,0.00,0.01
7:26:09 PM,8.90,-0.72,0.76,0.01,0.01,0.01
7:26:09 PM,8.96,-0.68,0.74,0.02,-0.01,0.01
7:26:09 PM,8.97,-0.67,0.72,0.01,0.00,0.01
7:26:09 PM,8.99,-0.70,0.68,0.00,-0.01,0.01
7:26:09 PM,8.95,-0.69,0.72,0.01,-0.03,0.01
7:26:09 PM,9.00,-0.71,0.71,0.00,-0.01,0.01
7:26:09 PM,9.00,-0.67,0.73,0.01,-0.03,0.01
7:26:09 PM,8.90,-0.68,0.71,0.01,-0.03,0.01
7:26:09 PM,8.90,-0.68,0.75,0.00,-0.02,0.01
7:26:09 PM,8.94,-0.70,0.75,0.01,-0.02,0.01
7:26:10 PM,8.96,-0.69,0.69,0.01,-0.02,0.01
7:26:10 PM,8.95,-0.66,0.75,0.01,-0.02,0.01
7:26:10 PM,8.94,-0.67,0.69,0.01,-0.03,0.01
7:26:10 PM,8.96,-0.73,0.75,0.01,-0.02,0.01
7:26:10 PM,8.96,-0.72,0.74,0.02,0.00,0.01
7:26:10 PM,8.94,-0.69,0.72,0.01,-0.00,0.01
7:26:10 PM,8.95,-0.68,0.68,0.01,-0.02,0.01
7:26:10 PM,8.95,-0.67,0.80,0.01,-0.00,0.01
7:26:10 PM,8.94,-0.66,0.74,0.02,-0.02,0.01
7:26:11 PM,8.99,-0.69,0.75,0.02,-0.01,0.01
7:26:11 PM,8.94,-0.73,0.79,0.03,0.00,0.01
7:26:11 PM,8.95,-0.69,0.69,0.02,0.01,0.01
7:26:11 PM,9.05,-0.69,0.67,0.01,-0.02,0.01
7:26:11 PM,9.11,-0.72,0.57,0.02,0.02,0.01
7:26:11 PM,8.79,-0.72,0.92,0.01,-0.02,0.01
7:26:11 PM,8.72,-0.76,1.01,0.04,0.07,0.01
7:26:11 PM,8.91,-0.68,0.79,0.04,0.03,0.01
7:26:11 PM,8.95,-0.68,0.71,0.02,0.00,0.01
7:26:11 PM,9.06,-0.67,0.57,0.00,-0.05,0.01
7:26:12 PM,9.17,-0.63,0.50,-0.02,-0.10,0.01
7:26:12 PM,9.04,-0.71,0.67,0.00,-0.06,0.01
7:26:12 PM,8.84,-0.68,0.81,0.02,0.00,0.01
7:26:12 PM,8.92,-0.69,0.72,0.01,-0.00,0.01
7:26:12 PM,9.06,-0.68,0.61,0.01,-0.02,0.01
7:26:12 PM,9.06,-0.73,0.62,0.00,-0.04,0.01
7:26:12 PM,8.95,-0.68,0.67,0.00,-0.07,0.01
7:26:12 PM,8.82,-0.70,0.86,0.00,-0.01,0.01
7:26:12 PM,8.88,-0.69,0.79,-0.00,-0.03,0.01
7:26:13 PM,8.95,-0.74,0.95,0.05,0.08,0.01
7:26:13 PM,8.97,-0.62,0.46,0.01,0.05,0.01
7:26:13 PM,8.87,-0.69,0.76,-0.05,-0.12,0.01
7:26:13 PM,8.92,-0.67,0.79,-0.03,-0.11,0.01
7:26:13 PM,8.95,-0.71,0.79,0.00,-0.04,0.01
7:26:13 PM,9.03,-0.65,0.70,0.03,-0.01,0.01
7:26:13 PM,8.96,-0.70,0.77,0.03,0.03,0.01
7:26:13 PM,8.85,-0.72,0.84,0.02,0.00,0.01
7:26:13 PM,8.83,-0.67,0.83,0.02,0.00,0.01
7:26:14 PM,8.96,-0.65,0.80,0.01,-0.00,0.01
7:26:14 PM,8.94,-0.64,0.74,0.02,0.02,0.01
7:26:14 PM,8.83,-0.69,0.85,0.02,-0.03,0.01
7:26:14 PM,8.85,-0.71,0.83,0.02,0.00,0.01
7:26:14 PM,8.95,-0.68,0.78,0.01,-0.02,0.01
7:26:14 PM,8.92,-0.75,0.78,0.01,0.01,0.01
7:26:14 PM,8.98,-0.69,0.73,0.02,0.00,0.01
7:26:14 PM,8.88,-0.74,0.78,0.02,-0.02,0.01
7:26:14 PM,8.83,-0.74,0.85,0.02,0.01,0.01
7:26:14 PM,8.86,-0.73,0.86,0.02,0.02,0.01
7:26:15 PM,8.97,-0.71,0.77,0.01,-0.01,0.01
7:26:15 PM,8.97,-0.72,0.72,-0.01,-0.02,0.01
7:26:15 PM,9.00,-0.74,0.69,0.00,-0.04,0.01
7:26:15 PM,8.97,-0.76,0.76,0.01,-0.03,0.01
7:26:15 PM,8.94,-0.71,0.72,0.02,-0.01,0.01
7:26:15 PM,8.91,-0.73,0.76,0.03,-0.01,0.01
7:26:15 PM,8.92,-0.69,0.75,0.02,-0.00,0.01
7:26:15 PM,8.92,-0.71,0.72,0.01,-0.03,0.01
7:26:15 PM,8.92,-0.73,0.73,0.01,-0.03,0.01
7:26:16 PM,8.92,-0.70,0.76,0.01,-0.02,0.01
7:26:16 PM,8.92,-0.70,0.74,0.01,-0.02,0.01
7:26:16 PM,8.95,-0.70,0.76,0.02,-0.00,0.01
7:26:16 PM,8.94,-0.69,0.74,0.01,-0.02,0.01
7:26:16 PM,8.95,-0.71,0.72,0.01,-0.02,0.01
7:26:16 PM,8.96,-0.64,0.77,0.01,-0.04,0.01
7:26:16 PM,8.93,-0.65,0.79,0.01,-0.01,0.01
7:26:16 PM,8.93,-0.69,0.74,0.02,-0.03,0.01
7:26:16 PM,8.94,-0.71,0.71,0.01,-0.00,0.01
7:26:16 PM,8.98,-0.74,0.70,0.02,0.00,0.01
7:26:17 PM,8.97,-0.72,0.74,0.01,0.01,0.01
7:26:17 PM,8.97,-0.69,0.75,0.01,-0.01,0.01
7:26:17 PM,8.96,-0.69,0.74,0.01,-0.05,0.01
7:26:17 PM,8.94,-0.69,0.77,0.00,-0.02,0.01
7:26:17 PM,8.98,-0.71,0.69,0.01,-0.01,0.01
7:26:17 PM,8.97,-0.69,0.70,0.01,-0.00,0.01
7:26:17 PM,8.88,-0.77,0.75,0.02,-0.02,0.01
7:26:17 PM,8.97,-0.68,0.77,0.00,0.00,0.01
7:26:17 PM,8.92,-0.66,0.75,0.01,-0.02,0.01
7:26:18 PM,8.88,-0.66,0.85,0.01,-0.01,0.01
7:26:18 PM,8.87,-0.70,0.82,0.02,0.00,0.01
7:26:18 PM,8.92,-0.65,0.79,0.01,-0.01,0.01
7:26:18 PM,8.96,-0.66,0.78,0.01,0.01,0.01
7:26:18 PM,8.96,-0.69,0.70,0.01,-0.02,0.01
7:26:18 PM,8.93,-0.65,0.82,0.02,-0.03,0.01
7:26:18 PM,8.92,-0.69,0.82,0.01,0.00,0.01
7:26:18 PM,8.97,-0.72,0.77,0.02,-0.01,0.01
7:26:18 PM,9.00,-0.69,0.78,0.02,-0.01,0.01
7:26:18 PM,8.96,-0.67,0.75,0.02,-0.02,0.01
7:26:19 PM,8.95,-0.69,0.73,0.01,-0.02,0.01
7:26:19 PM,8.97,-0.72,0.74,0.01,-0.01,0.01
7:26:19 PM,8.95,-0.74,0.73,0.02,-0.00,0.01
7:26:19 PM,8.95,-0.71,0.75,0.01,-0.01,0.01
7:26:19 PM,8.93,-0.70,0.76,0.02,-0.01,0.01
7:26:19 PM,8.97,-0.69,0.69,0.02,0.01,0.01
7:26:19 PM,8.94,-0.71,0.75,0.02,0.01,0.01
7:26:19 PM,8.95,-0.70,0.78,0.01,-0.01,0.01
7:26:19 PM,8.93,-0.72,0.75,0.01,-0.02,0.01
7:26:20 PM,8.96,-0.72,0.75,0.00,-0.02,0.01
7:26:20 PM,8.94,-0.75,0.76,0.00,-0.02,0.01
7:26:20 PM,8.95,-0.71,0.74,0.01,-0.02,0.01
7:26:20 PM,8.90,-0.72,0.79,0.02,-0.01,0.01
7:26:20 PM,8.92,-0.70,0.74,0.01,-0.02,0.01
7:26:20 PM,8.91,-0.69,0.81,0.01,-0.01,0.01
7:26:20 PM,8.91,-0.68,0.81,0.02,-0.01,0.01
7:26:20 PM,8.91,-0.67,0.75,0.01,-0.02,0.01
7:26:20 PM,8.89,-0.66,0.77,-0.01,-0.04,0.01
7:26:20 PM,8.89,-0.70,0.87,0.00,-0.01,0.01
7:26:21 PM,8.92,-0.67,0.81,0.02,-0.00,0.01
7:26:21 PM,8.96,-0.69,0.73,0.01,-0.02,0.01
7:26:21 PM,8.97,-0.67,0.68,-0.01,-0.04,0.01
7:26:21 PM,8.82,-0.72,0.82,-0.00,-0.05,0.01
7:26:21 PM,8.84,-0.73,0.91,0.02,0.01,0.01
7:26:21 PM,8.90,-0.70,0.80,0.02,-0.01,0.01
7:26:21 PM,8.89,-0.69,0.80,0.01,-0.00,0.01
7:26:21 PM,8.92,-0.70,0.80,0.01,-0.02,0.01
7:26:21 PM,8.93,-0.71,0.77,0.01,-0.03,0.01
7:26:22 PM,8.98,-0.67,0.68,0.02,-0.01,0.01
7:26:22 PM,8.87,-0.64,0.79,0.00,-0.03,0.01
7:26:22 PM,8.88,-0.68,0.77,0.00,-0.04,0.01
7:26:22 PM,8.85,-0.69,0.86,0.01,-0.01,0.01
7:26:22 PM,8.95,-0.68,0.68,-0.00,-0.02,0.01
7:26:22 PM,9.03,-0.72,0.68,-0.01,-0.06,0.01
7:26:22 PM,9.01,-0.67,0.72,0.00,-0.02,0.01
7:26:22 PM,8.96,-0.74,0.81,0.02,0.02,0.01
7:26:22 PM,8.87,-0.74,0.79,0.03,0.04,0.01
7:26:22 PM,8.87,-0.69,0.82,0.02,0.02,0.01
7:26:23 PM,8.89,-0.69,0.82,0.03,0.03,0.01
7:26:23 PM,8.86,-0.71,0.84,0.03,0.03,0.01
7:26:23 PM,8.88,-0.72,0.79,0.03,0.03,0.01
7:26:23 PM,8.95,-0.68,0.71,0.01,-0.00,0.01
7:26:23 PM,9.01,-0.68,0.70,0.01,-0.01,0.01
7:26:23 PM,9.00,-0.69,0.74,0.01,-0.01,0.01
7:26:23 PM,8.99,-0.66,0.75,0.01,-0.02,0.01
7:26:23 PM,9.02,-0.67,0.66,0.01,-0.03,0.01
7:26:23 PM,9.00,-0.68,0.67,-0.01,-0.05,0.01
7:26:24 PM,8.99,-0.68,0.76,-0.01,-0.05,0.01
7:26:24 PM,8.96,-0.71,0.75,0.01,-0.03,0.01
7:26:24 PM,8.95,-0.69,0.70,0.01,-0.03,0.01
7:26:24 PM,8.95,-0.71,0.71,0.02,-0.01,0.01
7:26:24 PM,8.89,-0.73,0.74,0.01,0.00,0.01
7:26:24 PM,8.94,-0.68,0.72,0.01,-0.01,0.01
7:26:24 PM,8.90,-0.70,0.79,0.01,-0.00,0.01
7:26:24 PM,8.96,-0.70,0.81,0.01,-0.01,0.01
7:26:24 PM,8.93,-0.68,0.79,0.03,0.01,0.01
7:26:24 PM,8.92,-0.70,0.78,0.03,0.02,0.01
7:26:25 PM,8.93,-0.69,0.88,0.03,0.03,0.01
7:26:25 PM,8.99,-0.70,0.76,0.04,0.04,0.01
7:26:25 PM,9.05,-0.67,0.62,0.02,-0.01,0.01
7:26:25 PM,8.99,-0.64,0.72,0.01,-0.03,0.01
7:26:25 PM,8.84,-0.71,0.84,0.03,0.06,0.01
7:26:25 PM,8.95,-0.68,0.74,0.02,-0.01,0.01
7:26:25 PM,8.95,-0.63,0.79,0.01,-0.05,0.01
7:26:25 PM,8.99,-0.67,0.67,-0.01,-0.06,0.01
7:26:25 PM,8.90,-0.72,0.74,0.00,-0.05,0.01
7:26:26 PM,8.81,-0.72,0.73,0.01,-0.04,0.01
7:26:26 PM,8.91,-0.70,0.70,0.01,-0.01,0.01
7:26:26 PM,8.92,-0.74,0.74,0.02,-0.00,0.01
7:26:26 PM,8.91,-0.76,0.77,0.02,-0.00,0.01
7:26:26 PM,8.97,-0.70,0.70,-0.00,-0.01,0.01
7:26:26 PM,8.96,-0.70,0.67,0.01,-0.00,0.01
7:26:26 PM,8.95,-0.72,0.65,0.01,-0.01,0.01
7:26:26 PM,8.89,-0.69,0.79,-0.00,-0.01,0.01
7:26:26 PM,8.90,-0.65,0.74,-0.02,-0.03,0.01
7:26:27 PM,8.93,-0.66,0.75,-0.01,-0.04,0.01
7:26:27 PM,8.94,-0.66,0.74,-0.00,-0.05,0.01
7:26:27 PM,8.93,-0.75,0.73,0.01,-0.02,0.01
7:26:27 PM,9.01,-0.68,0.68,-0.02,-0.09,0.01
7:26:27 PM,9.01,-0.66,0.64,-0.01,-0.03,0.01
7:26:27 PM,8.90,-0.64,0.75,0.00,0.04,0.01
7:26:27 PM,8.88,-0.69,0.80,0.01,-0.02,0.01
7:26:27 PM,8.95,-0.66,0.77,0.01,-0.01,0.01
7:26:27 PM,8.93,-0.64,0.74,0.01,-0.00,0.01
7:26:27 PM,8.93,-0.70,0.82,0.01,-0.02,0.01
7:26:28 PM,9.03,-0.67,0.63,0.01,-0.02,0.01
7:26:28 PM,9.00,-0.66,0.74,0.01,-0.03,0.01
7:26:28 PM,8.97,-0.72,0.81,0.01,-0.01,0.01
7:26:28 PM,8.96,-0.68,0.80,0.02,-0.02,0.01
7:26:28 PM,8.92,-0.69,0.70,0.01,-0.03,0.01
7:26:28 PM,8.94,-0.71,0.65,0.01,-0.02,0.01
7:26:28 PM,8.95,-0.70,0.69,0.01,-0.01,0.01
7:26:28 PM,8.91,-0.68,0.74,0.02,-0.01,0.01
7:26:28 PM,8.94,-0.68,0.74,0.02,-0.01,0.01
7:26:29 PM,9.00,-0.67,0.72,0.01,-0.02,0.01
7:26:29 PM,8.94,-0.68,0.70,-0.00,-0.04,0.01
7:26:29 PM,8.97,-0.66,0.72,0.00,-0.02,0.01
7:26:29 PM,8.99,-0.71,0.68,0.00,-0.02,0.01
7:26:29 PM,9.00,-0.71,0.73,0.01,-0.01,0.01
7:26:29 PM,9.00,-0.70,0.76,0.01,-0.02,0.01
7:26:29 PM,8.98,-0.68,0.74,0.01,-0.02,0.01
7:26:29 PM,9.00,-0.70,0.70,0.01,-0.02,0.01
7:26:29 PM,8.97,-0.69,0.71,0.01,-0.02,0.01
7:26:30 PM,8.98,-0.70,0.72,0.01,-0.01,0.01
7:26:30 PM,8.97,-0.68,0.72,0.01,-0.00,0.01
7:26:30 PM,8.94,-0.68,0.76,0.00,-0.00,0.01
7:26:30 PM,8.99,-0.66,0.70,0.01,-0.03,0.01
7:26:30 PM,8.94,-0.68,0.80,0.01,-0.01,0.01
7:26:30 PM,8.94,-0.68,0.80,0.02,-0.00,0.01
7:26:30 PM,8.94,-0.65,0.80,0.01,-0.02,0.01
7:26:30 PM,8.94,-0.67,0.84,0.02,-0.01,0.01
7:26:30 PM,8.94,-0.71,0.77,0.02,-0.01,0.01
7:26:30 PM,8.94,-0.69,0.75,0.01,-0.01,0.01
7:26:31 PM,8.98,-0.70,0.74,0.01,-0.01,0.01
7:26:31 PM,8.91,-0.69,0.80,0.01,0.00,0.01
7:26:31 PM,8.94,-0.69,0.82,0.01,-0.00,0.01
7:26:31 PM,8.95,-0.69,0.80,0.01,-0.01,0.01
7:26:31 PM,8.94,-0.68,0.81,0.01,-0.02,0.01
7:26:31 PM,8.93,-0.67,0.79,0.01,-0.01,0.01
7:26:31 PM,8.91,-0.66,0.79,0.01,-0.02,0.01
7:26:31 PM,8.93,-0.67,0.83,0.02,-0.01,0.01
7:26:31 PM,8.93,-0.62,0.81,0.01,-0.01,0.01
7:26:32 PM,8.91,-0.63,0.85,0.02,-0.03,0.01
7:26:32 PM,8.92,-0.63,0.78,-0.01,-0.04,0.01
7:26:32 PM,8.89,-0.70,0.76,0.01,0.01,0.01
7:26:32 PM,8.91,-0.66,0.75,0.00,-0.04,0.01
7:26:32 PM,8.97,-0.65,0.63,-0.01,-0.05,0.01
7:26:32 PM,9.15,-0.52,0.62,0.05,0.13,0.01
7:26:32 PM,8.93,-0.64,0.89,0.03,0.16,0.01
7:26:32 PM,8.85,-0.69,0.98,-0.01,-0.05,0.01
7:26:32 PM,8.94,-0.65,0.90,0.00,-0.08,0.01
7:26:32 PM,8.92,-0.64,0.78,0.03,0.01,0.01
7:26:33 PM,8.91,-0.72,0.84,0.02,0.01,0.01
7:26:33 PM,8.96,-0.67,0.83,0.01,-0.01,0.01
7:26:33 PM,8.95,-0.65,0.76,0.01,-0.00,0.01
7:26:33 PM,8.92,-0.65,0.83,0.01,-0.03,0.01
7:26:33 PM,8.93,-0.60,0.76,0.04,0.02,0.01
7:26:33 PM,8.94,-0.70,0.81,-0.01,-0.08,0.01
7:26:33 PM,9.00,-0.68,0.72,-0.01,-0.07,0.01
7:26:33 PM,8.93,-0.70,0.78,-0.01,-0.03,0.01
7:26:33 PM,8.92,-0.70,0.81,0.01,-0.01,0.01
7:26:33 PM,8.97,-0.66,1.06,0.07,0.17,0.01
7:26:34 PM,9.12,-0.66,0.62,0.03,-0.09,0.01
7:26:34 PM,9.05,-0.67,0.69,-0.00,-0.06,0.01
7:26:34 PM,9.02,-0.71,0.74,-0.00,-0.02,0.01
7:26:34 PM,8.98,-0.66,0.77,0.01,-0.02,0.01
7:26:34 PM,8.94,-0.63,0.83,0.03,0.00,0.01
7:26:34 PM,8.96,-0.63,0.78,0.02,-0.02,0.01
7:26:34 PM,8.98,-0.70,0.78,0.01,-0.02,0.01
7:26:34 PM,8.93,-0.70,0.81,0.03,0.02,0.01
7:26:34 PM,8.92,-0.55,0.79,-0.03,-0.11,0.01
7:26:35 PM,8.86,-0.60,0.82,-0.02,-0.07,0.01
7:26:35 PM,8.87,-0.63,0.92,-0.01,-0.05,0.01
7:26:35 PM,8.88,-0.64,0.91,0.01,-0.01,0.01
7:26:35 PM,8.94,-0.62,0.78,0.02,-0.00,0.01
7:26:35 PM,8.95,-0.64,0.81,0.01,-0.04,0.01
7:26:35 PM,8.98,-0.64,0.78,0.00,-0.04,0.01
7:26:35 PM,8.92,-0.62,0.82,0.00,-0.03,0.01
7:26:35 PM,8.92,-0.65,0.81,0.01,-0.02,0.01
7:26:35 PM,8.90,-0.69,0.91,0.03,0.04,0.01
7:26:35 PM,9.00,-0.64,0.76,0.02,-0.01,0.01
7:26:36 PM,8.94,-0.62,0.87,0.00,-0.02,0.01
7:26:36 PM,8.92,-0.64,0.84,0.00,-0.02,0.01
7:26:36 PM,8.87,-0.67,0.92,0.02,0.02,0.01
7:26:36 PM,8.89,-0.68,0.86,0.03,0.02,0.01
7:26:36 PM,8.94,-0.65,0.81,0.02,0.01,0.01
7:26:36 PM,8.98,-0.66,0.77,0.01,-0.02,0.01
7:26:36 PM,9.00,-0.68,0.77,-0.00,-0.03,0.01
7:26:36 PM,8.99,-0.69,0.76,0.01,-0.01,0.01
7:26:36 PM,8.99,-0.65,0.73,0.01,-0.01,0.01
7:26:37 PM,8.93,-0.67,0.88,0.00,-0.03,0.01
7:26:37 PM,8.90,-0.72,0.86,0.01,-0.00,0.01
7:26:37 PM,9.00,-0.67,0.75,0.02,-0.00,0.01
7:26:37 PM,9.02,-0.66,0.75,0.01,-0.02,0.01
7:26:37 PM,9.03,-0.68,0.66,-0.01,-0.05,0.01
7:26:37 PM,9.02,-0.67,0.75,-0.02,-0.07,0.01
7:26:37 PM,8.95,-0.67,0.88,0.01,-0.03,0.01
7:26:37 PM,8.92,-0.68,0.89,0.01,0.00,0.01
7:26:37 PM,8.94,-0.68,0.85,0.03,0.03,0.01
7:26:38 PM,8.91,-0.66,0.80,0.03,0.02,0.01
7:26:38 PM,8.94,-0.68,0.83,0.02,-0.01,0.01
7:26:38 PM,8.94,-0.64,0.78,0.01,-0.02,0.01
7:26:38 PM,8.93,-0.68,0.86,0.01,-0.03,0.01
7:26:38 PM,8.86,-0.68,0.86,0.01,-0.02,0.01
7:26:38 PM,8.85,-0.65,0.89,0.02,-0.01,0.01
7:26:38 PM,8.87,-0.67,0.88,0.01,-0.01,0.01
7:26:38 PM,8.98,-0.64,0.78,0.01,-0.02,0.01
7:26:38 PM,8.97,-0.65,0.81,0.02,-0.01,0.01
7:26:38 PM,8.89,-0.66,0.84,0.01,-0.01,0.01
7:26:39 PM,8.90,-0.68,0.85,0.01,-0.01,0.01
7:26:39 PM,8.94,-0.64,0.88,0.03,-0.00,0.01
7:26:39 PM,8.93,-0.67,0.82,0.01,-0.01,0.01
7:26:39 PM,8.94,-0.68,0.87,0.01,-0.04,0.01
7:26:39 PM,8.92,-0.67,0.87,0.01,-0.01,0.01
7:26:39 PM,8.96,-0.65,0.80,0.01,-0.01,0.01
7:26:39 PM,8.87,-0.65,0.82,0.02,-0.01,0.01
7:26:39 PM,8.89,-0.67,0.84,0.00,-0.00,0.01
7:26:39 PM,8.93,-0.65,0.81,0.01,-0.02,0.01
7:26:40 PM,8.95,-0.67,0.80,0.00,-0.02,0.01
7:26:40 PM,9.01,-0.70,0.79,0.01,-0.01,0.01
7:26:40 PM,8.98,-0.67,0.77,0.01,-0.02,0.01
7:26:40 PM,8.92,-0.68,0.86,0.02,0.01,0.01
7:26:40 PM,8.86,-0.69,0.86,0.01,-0.02,0.01
7:26:40 PM,8.90,-0.66,0.84,0.02,0.02,0.01
7:26:40 PM,8.94,-0.66,0.84,0.00,-0.01,0.01
7:26:40 PM,8.90,-0.69,0.91,0.01,0.01,0.01
7:26:40 PM,8.94,-0.66,0.83,0.02,0.01,0.01
7:26:40 PM,8.89,-0.67,0.81,0.01,-0.01,0.01
7:26:41 PM,8.93,-0.64,0.80,0.01,0.00,0.01
7:26:41 PM,8.93,-0.68,0.81,-0.00,-0.03,0.01
7:26:41 PM,8.96,-0.70,0.82,0.01,0.00,0.01
7:26:41 PM,8.92,-0.66,0.76,0.01,-0.05,0.01
7:26:41 PM,8.85,-0.67,0.90,0.00,-0.04,0.01
7:26:41 PM,8.93,-0.68,0.77,0.00,-0.02,0.01
7:26:41 PM,8.90,-0.68,0.84,0.00,-0.03,0.01
7:26:41 PM,8.88,-0.69,0.85,0.01,-0.00,0.01
7:26:41 PM,8.97,-0.68,0.81,0.02,-0.01,0.01
7:26:42 PM,8.88,-0.71,0.87,0.02,-0.00,0.01
7:26:42 PM,8.93,-0.65,0.92,0.03,0.01,0.01
7:26:42 PM,8.98,-0.68,0.81,0.03,0.02,0.01
7:26:42 PM,8.92,-0.69,0.84,0.02,0.02,0.01
7:26:42 PM,8.90,-0.63,0.86,0.03,0.03,0.01
7:26:42 PM,8.95,-0.65,0.83,0.02,0.01,0.01
7:26:42 PM,8.98,-0.65,0.76,0.01,-0.02,0.01
7:26:42 PM,9.00,-0.63,0.78,0.00,-0.04,0.01
7:26:42 PM,8.95,-0.66,0.83,0.00,-0.03,0.01
7:26:42 PM,8.97,-0.65,0.82,0.01,-0.03,0.01
7:26:43 PM,8.95,-0.68,0.83,0.02,-0.01,0.01
7:26:43 PM,8.91,-0.67,0.85,0.02,-0.01,0.01
7:26:43 PM,8.89,-0.65,0.85,0.00,-0.03,0.01
7:26:43 PM,8.88,-0.66,0.85,0.01,-0.02,0.01
7:26:43 PM,8.91,-0.66,0.86,0.01,-0.02,0.01
7:26:43 PM,8.92,-0.68,0.83,0.01,-0.03,0.01
7:26:43 PM,8.93,-0.63,0.81,0.01,-0.02,0.01
7:26:43 PM,8.86,-0.64,0.90,0.00,-0.02,0.01
7:26:43 PM,8.90,-0.67,0.87,0.01,-0.01,0.01
7:26:44 PM,8.95,-0.65,0.80,0.00,-0.03,0.01
7:26:44 PM,8.92,-0.66,0.86,0.00,-0.02,0.01
7:26:44 PM,8.97,-0.64,0.81,0.00,-0.03,0.01
7:26:44 PM,8.92,-0.67,0.86,0.00,-0.02,0.01
7:26:44 PM,8.91,-0.67,0.85,0.01,-0.01,0.01
7:26:44 PM,8.91,-0.69,0.85,0.01,0.00,0.01
7:26:44 PM,8.95,-0.62,0.86,0.02,-0.01,0.01
7:26:44 PM,8.97,-0.67,0.78,0.03,0.01,0.01
7:26:44 PM,8.99,-0.67,0.78,0.02,0.00,0.01
7:26:44 PM,9.00,-0.68,0.75,0.00,-0.03,0.01
7:26:45 PM,8.92,-0.68,0.87,0.00,-0.01,0.01
7:26:45 PM,8.93,-0.65,0.79,0.01,-0.03,0.01
7:26:45 PM,8.93,-0.71,0.85,-0.00,-0.03,0.01
7:26:45 PM,8.95,-0.67,0.82,0.01,-0.03,0.01
7:26:45 PM,8.90,-0.65,0.82,0.01,-0.01,0.01
7:26:45 PM,8.90,-0.68,0.86,0.01,-0.01,0.01
7:26:45 PM,8.90,-0.64,0.88,0.01,-0.03,0.01
7:26:45 PM,8.89,-0.69,0.92,0.01,-0.01,0.01
7:26:45 PM,8.92,-0.67,0.90,0.02,-0.00,0.01
7:26:46 PM,8.96,-0.67,0.87,0.04,0.02,0.01
7:26:46 PM,8.98,-0.64,0.81,0.01,-0.03,0.01
7:26:46 PM,8.95,-0.66,0.85,0.01,-0.01,0.01
7:26:46 PM,8.98,-0.70,0.82,0.02,-0.01,0.01
7:26:46 PM,9.07,-0.68,0.82,0.01,-0.01,0.01
7:26:46 PM,9.03,-0.68,0.68,0.02,-0.01,0.01
7:26:46 PM,8.98,-0.68,0.84,0.01,-0.02,0.01
7:26:46 PM,8.89,-0.64,0.90,0.02,0.00,0.01
7:26:46 PM,8.96,-0.66,0.85,0.02,0.00,0.01
7:26:47 PM,8.91,-0.65,0.84,0.02,-0.01,0.01
7:26:47 PM,9.00,-0.68,0.74,0.01,-0.02,0.01
7:26:47 PM,8.96,-0.68,0.83,0.01,-0.01,0.01
7:26:47 PM,8.95,-0.66,0.88,0.02,-0.01,0.01
7:26:47 PM,8.97,-0.64,0.82,0.01,0.00,0.01
7:26:47 PM,8.94,-0.70,0.82,0.01,-0.02,0.01
7:26:47 PM,8.93,-0.70,0.88,0.01,0.00,0.01
7:26:47 PM,8.95,-0.65,0.83,0.00,-0.02,0.01
7:26:47 PM,8.88,-0.68,1.01,0.03,0.01,0.01
7:26:47 PM,8.93,-0.63,0.80,0.03,0.04,0.01
7:26:48 PM,8.92,-0.62,0.80,0.00,-0.04,0.01
7:26:48 PM,8.91,-0.62,0.90,0.01,-0.03,0.01
7:26:48 PM,8.99,-0.65,0.79,0.02,-0.01,0.01
7:26:48 PM,8.96,-0.67,0.84,0.02,0.00,0.01
7:26:48 PM,8.89,-0.68,0.88,0.02,0.00,0.01
7:26:48 PM,8.93,-0.70,0.85,0.02,-0.01,0.01
7:26:48 PM,8.97,-0.66,0.83,0.03,0.01,0.01
7:26:48 PM,8.97,-0.67,0.79,0.02,-0.02,0.01
7:26:48 PM,8.94,-0.67,0.82,0.02,-0.01,0.01
7:26:48 PM,8.92,-0.69,0.90,0.04,0.03,0.01
7:26:49 PM,8.97,-0.67,0.80,0.02,-0.00,0.01
7:26:49 PM,9.00,-0.64,0.73,0.00,-0.03,0.01
7:26:49 PM,8.98,-0.70,0.81,0.00,-0.05,0.01
7:26:49 PM,8.96,-0.70,0.82,0.01,-0.00,0.01
7:26:49 PM,8.89,-0.65,0.89,0.02,0.01,0.01
7:26:49 PM,8.89,-0.66,0.94,0.02,-0.00,0.01
7:26:49 PM,8.93,-0.66,0.84,0.01,0.01,0.01
7:26:49 PM,8.93,-0.66,0.84,0.01,-0.02,0.01
7:26:49 PM,8.95,-0.65,0.81,0.01,-0.01,0.01
7:26:50 PM,8.97,-0.69,0.79,0.01,-0.03,0.01
7:26:50 PM,8.98,-0.66,0.79,0.01,-0.03,0.01
7:26:50 PM,8.95,-0.64,0.85,0.01,-0.01,0.01
7:26:50 PM,8.94,-0.64,0.83,0.01,-0.02,0.01
7:26:50 PM,8.89,-0.67,0.90,0.00,-0.03,0.01
7:26:50 PM,8.91,-0.63,0.79,0.01,-0.04,0.01
7:26:50 PM,8.91,-0.66,0.88,0.01,-0.04,0.01
7:26:50 PM,8.89,-0.64,0.80,0.02,-0.05,0.01
7:26:50 PM,8.90,-0.67,0.85,-0.00,-0.03,0.01
7:26:51 PM,8.91,-0.65,0.88,-0.01,-0.01,0.01
7:26:51 PM,8.89,-0.67,0.85,0.00,-0.04,0.01
7:26:51 PM,8.92,-0.64,0.84,0.00,-0.00,0.01
7:26:51 PM,8.93,-0.68,0.89,0.01,-0.01,0.01
7:26:51 PM,8.94,-0.63,0.81,0.01,-0.01,0.01
7:26:51 PM,8.92,-0.67,0.83,0.01,-0.01,0.01
7:26:51 PM,8.89,-0.71,0.86,0.02,-0.02,0.01
7:26:51 PM,8.97,-0.67,0.80,0.02,-0.01,0.01
7:26:51 PM,8.92,-0.69,0.81,0.03,0.01,0.01
7:26:51 PM,8.93,-0.64,0.83,0.02,0.01,0.01
7:26:52 PM,8.93,-0.64,0.79,0.02,-0.00,0.01
7:26:52 PM,8.97,-0.67,0.81,0.02,-0.01,0.01
7:26:52 PM,8.93,-0.66,0.86,0.02,-0.00,0.01
7:26:52 PM,8.92,-0.55,0.62,-0.03,-0.05,0.01
7:26:52 PM,9.54,-0.65,0.25,-0.08,-0.20,0.01
7:26:52 PM,9.16,-0.74,0.64,-0.06,-0.15,0.01
7:26:52 PM,8.91,-0.67,0.85,-0.02,-0.06,0.01
7:26:52 PM,8.84,-0.62,0.91,0.00,-0.02,0.01
7:26:52 PM,8.94,-0.62,0.81,0.00,-0.05,0.01
7:26:53 PM,8.96,-0.64,0.82,-0.01,-0.05,0.01
7:26:53 PM,8.93,-0.64,0.88,0.00,-0.03,0.01
7:26:53 PM,8.89,-0.63,0.87,0.00,-0.03,0.01
7:26:53 PM,8.91,-0.62,0.86,-0.01,-0.04,0.01
7:26:53 PM,8.89,-0.65,0.85,-0.00,-0.03,0.01
7:26:53 PM,8.89,-0.66,0.90,0.00,-0.02,0.01
7:26:53 PM,8.84,-0.68,0.91,0.01,-0.03,0.01
7:26:53 PM,8.90,-0.65,0.85,0.01,-0.02,0.01
7:26:53 PM,8.31,-0.57,1.37,0.06,0.19,0.01
7:26:53 PM,8.63,-0.65,1.19,0.04,0.09,0.01
7:26:54 PM,8.92,-0.60,0.90,0.05,0.05,0.01
7:26:54 PM,8.88,-0.63,0.86,0.02,-0.02,0.01
7:26:54 PM,8.78,-0.65,1.01,0.02,0.02,0.01
7:26:54 PM,8.91,-0.64,0.85,0.01,0.01,0.01
7:26:54 PM,8.93,-0.68,0.88,0.00,-0.02,0.01
7:26:54 PM,8.91,-0.65,0.84,0.03,0.02,0.01
7:26:54 PM,8.94,-0.66,0.85,0.02,0.01,0.01
7:26:54 PM,9.00,-0.64,0.77,0.02,-0.00,0.01
7:26:54 PM,9.00,-0.65,0.73,0.01,-0.01,0.01
7:26:55 PM,9.02,-0.62,0.73,0.00,-0.05,0.01
7:26:55 PM,8.92,-0.68,0.72,-0.00,-0.05,0.01
7:26:55 PM,8.93,-0.67,0.75,-0.00,-0.04,0.01
7:26:55 PM,8.93,-0.66,0.81,0.01,-0.02,0.01
7:26:55 PM,8.88,-0.68,0.82,0.01,-0.02,0.01
7:26:55 PM,8.93,-0.66,0.84,0.01,-0.01,0.01
7:26:55 PM,8.95,-0.64,0.84,0.01,-0.01,0.01
7:26:55 PM,8.93,-0.66,0.81,0.01,-0.01,0.01
7:26:55 PM,8.90,-0.67,0.91,0.01,-0.00,0.01
7:26:55 PM,8.93,-0.62,0.84,0.03,0.01,0.01
7:26:56 PM,8.96,-0.65,0.82,0.02,0.02,0.01
7:26:56 PM,8.95,-0.65,0.82,0.01,-0.02,0.01
7:26:56 PM,8.93,-0.65,0.84,0.02,-0.00,0.01
7:26:56 PM,8.89,-0.65,0.87,0.02,0.01,0.01
7:26:56 PM,8.89,-0.66,0.85,0.02,0.00,0.01
7:26:56 PM,8.97,-0.64,0.77,0.02,-0.00,0.01
7:26:56 PM,8.99,-0.65,0.85,0.03,-0.00,0.01
7:26:56 PM,9.00,-0.62,0.75,0.03,0.02,0.01
7:26:56 PM,8.96,-0.66,0.77,0.01,-0.02,0.01
7:26:57 PM,8.91,-0.64,0.80,0.01,-0.02,0.01
7:26:57 PM,8.94,-0.65,0.73,-0.01,-0.04,0.01
7:26:57 PM,8.98,-0.60,0.69,-0.03,-0.09,0.01
7:26:57 PM,8.88,-0.70,0.92,-0.02,-0.08,0.01
7:26:57 PM,8.92,-0.62,0.82,0.00,-0.03,0.01
7:26:57 PM,8.91,-0.65,0.76,-0.00,-0.04,0.01
7:26:57 PM,8.88,-0.63,0.84,-0.00,-0.03,0.01
7:26:57 PM,8.90,-0.62,0.77,-0.01,-0.06,0.01
7:26:57 PM,8.92,-0.66,0.79,-0.00,-0.06,0.01
7:26:57 PM,8.90,-0.62,0.84,0.00,-0.04,0.01
7:26:58 PM,8.90,-0.65,0.81,0.01,-0.01,0.01
7:26:58 PM,8.91,-0.67,0.78,0.01,-0.03,0.01
7:26:58 PM,8.88,-0.68,0.81,0.00,-0.02,0.01
7:26:58 PM,8.88,-0.65,0.84,0.01,-0.04,0.01
7:26:58 PM,8.92,-0.65,0.76,0.01,-0.02,0.01
7:26:58 PM,8.90,-0.66,0.75,0.01,-0.02,0.01
7:26:58 PM,8.91,-0.62,0.78,0.02,-0.01,0.01
7:26:58 PM,8.88,-0.65,0.78,0.02,-0.01,0.01
7:26:58 PM,8.87,-0.67,0.88,0.02,-0.00,0.01
7:26:59 PM,8.95,-0.67,0.79,0.03,0.03,0.01
7:26:59 PM,8.93,-0.65,0.80,0.01,0.00,0.01
7:26:59 PM,8.92,-0.65,0.81,0.02,0.01,0.01
7:26:59 PM,8.90,-0.70,0.88,0.03,0.03,0.01
7:26:59 PM,8.98,-0.68,0.72,0.04,0.03,0.01
7:26:59 PM,8.97,-0.62,0.68,0.03,0.02,0.01
7:26:59 PM,8.97,-0.63,0.72,0.01,-0.03,0.01
7:26:59 PM,8.91,-0.66,0.84,0.02,-0.00,0.01
7:26:59 PM,8.91,-0.68,0.79,0.03,0.03,0.01
7:26:59 PM,8.95,-0.62,0.73,0.02,-0.00,0.01
7:27:00 PM,8.92,-0.66,0.76,0.02,-0.00,0.01
7:27:00 PM,8.96,-0.66,0.71,0.01,0.01,0.01
7:27:00 PM,8.88,-0.63,0.75,0.01,-0.03,0.01
7:27:00 PM,8.91,-0.66,0.78,0.00,-0.03,0.01
7:27:00 PM,8.91,-0.64,0.76,0.01,-0.02,0.01
7:27:00 PM,8.97,-0.64,0.72,0.00,-0.01,0.01
7:27:00 PM,8.94,-0.66,0.82,0.02,0.01,0.01
7:27:00 PM,8.91,-0.68,0.77,0.02,0.01,0.01
7:27:00 PM,8.95,-0.64,0.75,0.03,0.02,0.01
7:27:01 PM,9.05,-0.62,0.69,0.02,-0.01,0.01
7:27:01 PM,8.98,-0.64,0.66,0.02,-0.01,0.01
7:27:01 PM,9.04,-0.67,0.66,0.02,-0.00,0.01
7:27:01 PM,9.04,-0.69,0.63,0.02,0.02,0.01
7:27:01 PM,9.04,-0.64,0.66,0.01,-0.02,0.01
7:27:01 PM,8.98,-0.68,0.65,0.01,-0.02,0.01
7:27:01 PM,8.97,-0.67,0.66,0.02,-0.02,0.01
7:27:01 PM,8.93,-0.66,0.79,0.02,-0.00,0.01
7:27:01 PM,8.94,-0.63,0.70,0.01,-0.01,0.01
7:27:02 PM,8.89,-0.61,0.77,0.01,-0.02,0.01
7:27:02 PM,8.91,-0.60,0.75,0.01,-0.03,0.01
7:27:02 PM,8.87,-0.64,0.76,0.00,-0.05,0.01
7:27:02 PM,8.93,-0.65,0.73,-0.01,-0.03,0.01
7:27:02 PM,8.99,-0.61,0.68,0.00,-0.05,0.01
7:27:02 PM,8.98,-0.67,0.69,0.01,-0.02,0.01
7:27:02 PM,8.97,-0.65,0.67,0.00,-0.03,0.01
7:27:02 PM,8.95,-0.63,0.73,-0.01,-0.03,0.01
7:27:02 PM,8.94,-0.63,0.74,-0.01,-0.04,0.01
7:27:02 PM,8.99,-0.64,0.75,-0.01,-0.04,0.01
7:27:03 PM,8.87,-0.66,0.74,0.00,-0.03,0.01
7:27:03 PM,8.87,-0.62,0.85,0.02,-0.01,0.01
7:27:03 PM,8.91,-0.62,0.76,0.02,-0.02,0.01
7:27:03 PM,8.92,-0.61,0.71,0.00,-0.03,0.01
7:27:03 PM,8.93,-0.64,0.86,0.03,0.01,0.01
7:27:03 PM,8.94,-0.62,0.76,0.02,0.00,0.01
7:27:03 PM,8.98,-0.62,0.69,0.01,-0.03,0.01
7:27:03 PM,8.95,-0.65,0.75,0.02,-0.02,0.01
7:27:03 PM,8.96,-0.64,0.71,0.01,0.01,0.01
7:27:04 PM,9.05,-0.63,0.61,-0.01,-0.04,0.01
7:27:04 PM,8.99,-0.69,0.67,0.00,-0.02,0.01
7:27:04 PM,8.96,-0.66,0.71,0.01,-0.01,0.01
7:27:04 PM,9.00,-0.61,0.62,0.00,-0.02,0.01
7:27:04 PM,9.13,-0.68,0.59,-0.00,-0.03,0.01
7:27:04 PM,9.04,-0.67,0.58,0.00,-0.02,0.01
7:27:04 PM,8.90,-0.67,0.77,0.02,-0.03,0.01
7:27:04 PM,8.93,-0.65,0.65,0.00,-0.02,0.01
7:27:04 PM,9.01,-0.64,0.67,0.00,-0.04,0.01
7:27:04 PM,9.04,-0.68,0.69,0.02,-0.01,0.01
7:27:05 PM,9.03,-0.64,0.66,0.02,-0.03,0.01
7:27:05 PM,8.98,-0.63,0.68,0.00,-0.02,0.01
7:27:05 PM,8.93,-0.65,0.72,0.00,-0.04,0.01
7:27:05 PM,8.92,-0.64,0.76,0.00,-0.04,0.01
7:27:05 PM,8.94,-0.60,0.71,-0.00,-0.03,0.01
7:27:05 PM,8.95,-0.63,0.75,0.00,-0.03,0.01
7:27:05 PM,8.98,-0.62,0.63,-0.01,-0.01,0.01
7:27:05 PM,9.00,-0.63,0.69,0.00,-0.04,0.01
7:27:05 PM,8.99,-0.63,0.69,0.00,-0.02,0.01
7:27:06 PM,8.98,-0.67,0.64,0.02,-0.02,0.01
7:27:06 PM,8.92,-0.67,0.75,0.03,-0.06,0.01
7:27:06 PM,8.90,-0.65,0.67,-0.00,-0.03,0.01
7:27:06 PM,8.81,-0.60,0.76,-0.01,-0.09,0.01
7:27:06 PM,8.91,-0.65,0.77,0.00,-0.05,0.01
7:27:06 PM,8.94,-0.64,0.85,0.02,-0.02,0.01
7:27:06 PM,8.97,-0.65,0.88,0.05,-0.01,0.01
7:27:06 PM,8.82,-0.63,0.80,0.01,-0.02,0.01
7:27:06 PM,8.77,-0.64,0.92,0.01,0.03,0.01
7:27:06 PM,8.96,-0.61,0.68,0.03,0.04,0.01
7:27:07 PM,9.01,-0.62,0.59,0.01,-0.03,0.01
7:27:07 PM,9.08,-0.68,0.69,0.01,-0.04,0.01
7:27:07 PM,8.98,-0.68,0.80,-0.00,-0.02,0.01
7:27:07 PM,8.95,-0.64,0.78,-0.01,-0.04,0.01
7:27:07 PM,9.00,-0.66,0.70,-0.00,-0.01,0.01
7:27:07 PM,9.03,-0.66,0.69,0.02,-0.03,0.01
7:27:07 PM,8.95,-0.68,0.74,0.01,-0.01,0.01
7:27:07 PM,8.98,-0.70,0.74,0.02,0.02,0.01
7:27:07 PM,8.92,-0.67,0.76,0.02,0.01,0.01
7:27:08 PM,8.97,-0.64,0.78,0.02,-0.00,0.01
7:27:08 PM,8.95,-0.70,0.71,0.00,-0.02,0.01
7:27:08 PM,8.99,-0.65,0.71,0.01,-0.04,0.01
7:27:08 PM,8.94,-0.70,0.80,0.03,0.04,0.01
7:27:08 PM,8.85,-0.69,0.90,0.02,0.02,0.01
7:27:08 PM,9.04,-0.65,0.70,0.01,-0.02,0.01
7:27:08 PM,8.47,-0.60,0.89,-0.05,-0.18,0.01
7:27:08 PM,8.66,-0.64,0.96,-0.03,-0.03,0.01
7:27:08 PM,8.98,-0.66,0.77,-0.01,-0.06,0.01
7:27:08 PM,8.90,-0.65,0.85,0.02,0.00,0.01
7:27:09 PM,8.92,-0.62,0.82,0.01,-0.02,0.01
7:27:09 PM,8.95,-0.68,0.77,0.00,-0.03,0.01
7:27:09 PM,8.89,-0.65,0.77,0.00,-0.02,0.01
7:27:09 PM,9.09,-0.68,0.64,-0.01,-0.08,0.01
7:27:09 PM,9.02,-0.63,0.77,0.00,-0.03,0.01
7:27:09 PM,8.94,-0.63,0.70,-0.00,-0.03,0.01
7:27:09 PM,8.94,-0.68,0.87,0.01,-0.02,0.01
7:27:09 PM,9.00,-0.64,0.77,0.02,0.04,0.01
7:27:09 PM,9.02,-0.62,0.64,0.00,-0.02,0.01
7:27:10 PM,8.92,-0.68,0.82,-0.00,-0.04,0.01
7:27:10 PM,8.86,-0.66,0.88,0.02,0.02,0.01
7:27:10 PM,8.97,-0.62,0.81,-0.00,-0.01,0.01
7:27:10 PM,8.95,-0.63,0.82,0.00,-0.04,0.01
7:27:10 PM,8.94,-0.66,0.82,0.01,-0.01,0.01
7:27:10 PM,9.00,-0.65,0.73,0.01,0.00,0.01
7:27:10 PM,8.79,-0.66,0.94,0.01,-0.02,0.01
7:27:10 PM,8.88,-0.64,0.87,0.02,0.02,0.01
7:27:10 PM,8.95,-0.65,0.77,0.01,-0.00,0.01
7:27:10 PM,8.93,-0.66,0.82,0.01,-0.01,0.01
7:27:11 PM,8.91,-0.65,0.74,0.01,-0.01,0.01
7:27:11 PM,9.03,-0.67,0.74,0.01,0.00,0.01
7:27:11 PM,8.96,-0.66,0.73,0.03,0.02,0.01
7:27:11 PM,8.92,-0.69,0.75,0.03,0.00,0.01
7:27:11 PM,8.98,-0.69,0.83,0.03,0.04,0.01
7:27:11 PM,8.99,-0.65,0.77,0.04,0.02,0.01
7:27:11 PM,8.98,-0.66,0.84,0.03,0.03,0.01
7:27:11 PM,8.96,-0.64,0.73,0.02,0.00,0.01
7:27:11 PM,8.98,-0.61,0.74,0.01,-0.00,0.01
7:27:12 PM,8.95,-0.64,0.78,0.01,-0.01,0.01
7:27:12 PM,9.00,-0.62,0.75,0.02,-0.00,0.01
7:27:12 PM,8.97,-0.61,0.69,0.00,-0.03,0.01
7:27:12 PM,8.91,-0.67,0.77,-0.00,-0.04,0.01
7:27:12 PM,8.90,-0.63,0.77,0.00,-0.02,0.01
7:27:12 PM,8.94,-0.64,0.75,0.00,-0.02,0.01
7:27:12 PM,8.98,-0.65,0.73,0.00,-0.03,0.01
7:27:12 PM,8.92,-0.67,0.79,0.00,-0.02,0.01
7:27:12 PM,8.94,-0.64,0.76,-0.00,-0.02,0.01
7:27:12 PM,8.91,-0.63,0.83,0.00,-0.01,0.01
7:27:13 PM,8.93,-0.67,0.77,0.02,-0.01,0.01
7:27:13 PM,8.94,-0.63,0.81,0.01,-0.01,0.01
7:27:13 PM,8.91,-0.68,0.80,0.01,-0.01,0.01
7:27:13 PM,8.94,-0.62,0.78,0.00,-0.03,0.01
7:27:13 PM,8.89,-0.63,0.76,0.01,-0.03,0.01
7:27:13 PM,8.92,-0.67,0.74,0.00,-0.02,0.01
7:27:13 PM,8.99,-0.68,0.69,-0.00,-0.05,0.01
7:27:13 PM,8.98,-0.67,0.68,0.01,-0.03,0.01
7:27:13 PM,8.97,-0.68,0.70,-0.00,-0.03,0.01
7:27:14 PM,8.96,-0.66,0.74,0.01,-0.02,0.01
7:27:14 PM,8.94,-0.64,0.74,0.02,-0.01,0.01
7:27:14 PM,8.97,-0.64,0.72,0.02,0.03,0.01
7:27:14 PM,8.96,-0.64,0.76,0.02,0.00,0.01
7:27:14 PM,8.89,-0.65,0.77,0.02,-0.02,0.01
7:27:14 PM,8.92,-0.65,0.79,0.01,-0.01,0.01
7:27:14 PM,8.96,-0.63,0.73,0.01,-0.03,0.01
7:27:14 PM,8.92,-0.65,0.76,0.01,-0.03,0.01
7:27:14 PM,8.93,-0.63,0.80,0.02,-0.02,0.01
7:27:15 PM,8.92,-0.64,0.76,0.02,-0.00,0.01
7:27:15 PM,8.99,-0.63,0.76,0.01,-0.00,0.01
7:27:15 PM,8.96,-0.63,0.79,0.02,-0.00,0.01
7:27:15 PM,8.91,-0.61,0.83,0.01,-0.02,0.01
7:27:15 PM,8.99,-0.64,0.75,0.01,-0.03,0.01
7:27:15 PM,8.99,-0.62,0.75,0.02,-0.03,0.01
7:27:15 PM,8.94,-0.65,0.75,0.02,-0.01,0.01
7:27:15 PM,8.95,-0.66,0.73,0.01,-0.01,0.01
7:27:15 PM,8.96,-0.63,0.77,0.00,-0.01,0.01
7:27:15 PM,8.98,-0.63,0.70,0.00,-0.02,0.01
7:27:16 PM,8.93,-0.63,0.79,0.01,-0.02,0.01
7:27:16 PM,8.94,-0.65,0.72,0.01,-0.00,0.01
7:27:16 PM,8.95,-0.66,0.71,0.01,-0.01,0.01
7:27:16 PM,8.97,-0.65,0.76,0.01,-0.01,0.01
7:27:16 PM,8.96,-0.63,0.78,0.01,-0.02,0.01
7:27:16 PM,8.97,-0.66,0.73,0.02,-0.01,0.01
7:27:16 PM,8.95,-0.65,0.76,0.01,0.01,0.01
7:27:16 PM,8.94,-0.67,0.77,0.01,-0.02,0.01
7:27:16 PM,8.98,-0.65,0.74,0.01,0.01,0.01
7:27:17 PM,8.95,-0.68,0.74,0.01,-0.01,0.01
7:27:17 PM,8.94,-0.64,0.77,0.02,-0.02,0.01
7:27:17 PM,8.90,-0.66,0.83,0.02,-0.01,0.01
7:27:17 PM,8.99,-0.63,0.68,0.02,0.00,0.01
7:27:17 PM,8.98,-0.63,0.74,0.02,0.00,0.01
7:27:17 PM,8.97,-0.63,0.70,0.01,-0.03,0.01
7:27:17 PM,8.95,-0.68,0.76,0.01,-0.01,0.01
7:27:17 PM,9.01,-0.68,0.73,0.02,-0.00,0.01
7:27:17 PM,9.00,-0.66,0.74,0.01,-0.02,0.01
7:27:17 PM,8.90,-0.67,0.78,0.01,-0.03,0.01
7:27:18 PM,8.91,-0.65,0.78,0.01,-0.02,0.01
7:27:18 PM,8.98,-0.66,0.77,0.01,-0.01,0.01
7:27:18 PM,8.97,-0.64,0.75,0.02,0.01,0.01
7:27:18 PM,8.93,-0.62,0.78,0.01,-0.02,0.01
7:27:18 PM,8.97,-0.62,0.75,0.02,0.01,0.01
7:27:18 PM,8.98,-0.61,0.76,0.01,-0.01,0.01
7:27:18 PM,8.96,-0.63,0.74,0.00,-0.01,0.01
7:27:18 PM,8.94,-0.65,0.79,0.00,-0.02,0.01
7:27:18 PM,8.94,-0.65,0.77,0.02,-0.01,0.01
7:27:19 PM,8.99,-0.66,0.69,0.01,0.02,0.01
7:27:19 PM,8.92,-0.62,0.84,0.01,-0.02,0.01
7:27:19 PM,8.88,-0.63,0.89,0.02,0.00,0.01
7:27:19 PM,8.89,-0.62,0.81,0.01,0.01,0.01
7:27:19 PM,8.90,-0.63,0.85,0.01,-0.01,0.01
7:27:19 PM,8.92,-0.64,0.83,0.02,0.02,0.01
7:27:19 PM,8.95,-0.66,0.78,0.02,0.01,0.01
7:27:19 PM,8.91,-0.64,0.76,0.01,-0.01,0.01
7:27:19 PM,8.90,-0.63,0.81,0.01,-0.02,0.01
7:27:20 PM,8.92,-0.64,0.79,0.01,0.02,0.01
7:27:20 PM,9.01,-0.60,0.68,0.02,0.00,0.01
7:27:20 PM,9.01,-0.64,0.66,0.01,-0.02,0.01
7:27:20 PM,8.94,-0.65,0.73,0.01,-0.02,0.01
7:27:20 PM,8.96,-0.66,0.79,0.01,-0.02,0.01
7:27:20 PM,8.94,-0.64,0.75,0.00,-0.02,0.01
7:27:20 PM,8.93,-0.67,0.77,0.01,-0.01,0.01
7:27:20 PM,8.94,-0.63,0.72,0.03,-0.01,0.01
7:27:20 PM,8.93,-0.64,0.76,0.02,-0.01,0.01
7:27:20 PM,9.00,-0.64,0.68,0.01,-0.02,0.01
7:27:21 PM,8.95,-0.70,0.79,0.02,-0.00,0.01
7:27:21 PM,8.97,-0.68,0.77,0.03,0.01,0.01
7:27:21 PM,8.99,-0.60,0.75,0.02,-0.02,0.01
7:27:21 PM,8.99,-0.63,0.72,0.01,-0.03,0.01
7:27:21 PM,8.92,-0.64,0.75,0.01,-0.02,0.01
7:27:21 PM,8.94,-0.62,0.75,0.01,-0.03,0.01
7:27:21 PM,8.98,-0.63,0.76,0.01,-0.01,0.01
7:27:21 PM,8.94,-0.66,0.78,0.01,0.01,0.01
7:27:21 PM,8.96,-0.63,0.72,0.02,-0.00,0.01
7:27:22 PM,8.95,-0.65,0.73,0.01,-0.02,0.01
7:27:22 PM,8.98,-0.62,0.77,0.00,-0.02,0.01
7:27:22 PM,8.93,-0.64,0.74,0.01,-0.02,0.01
7:27:22 PM,8.92,-0.63,0.76,0.01,-0.02,0.01
7:27:22 PM,8.94,-0.64,0.76,0.01,-0.02,0.01
7:27:22 PM,8.96,-0.66,0.73,0.02,0.00,0.01
7:27:22 PM,8.95,-0.64,0.76,0.01,-0.01,0.01
7:27:22 PM,8.96,-0.65,0.75,0.01,-0.01,0.01
7:27:22 PM,8.94,-0.66,0.74,0.01,-0.01,0.01
7:27:22 PM,8.94,-0.63,0.75,0.01,-0.01,0.01
7:27:23 PM,8.94,-0.66,0.75,0.02,-0.01,0.01
7:27:23 PM,8.94,-0.65,0.76,0.01,-0.02,0.01
7:27:23 PM,8.94,-0.63,0.77,0.02,-0.01,0.01
7:27:23 PM,8.93,-0.64,0.72,0.01,-0.01,0.01
7:27:23 PM,8.93,-0.65,0.74,0.01,-0.02,0.01
7:27:23 PM,8.94,-0.64,0.74,0.02,-0.01,0.01
7:27:23 PM,8.89,-0.68,0.81,0.02,0.02,0.01
7:27:23 PM,8.94,-0.63,0.76,0.02,0.01,0.01
7:27:23 PM,8.91,-0.68,0.76,0.01,-0.00,0.01
7:27:23 PM,8.97,-0.67,0.69,0.01,-0.02,0.01
7:27:24 PM,8.91,-0.63,0.76,0.00,-0.02,0.01
7:27:24 PM,8.98,-0.68,0.75,0.01,-0.02,0.01
7:27:24 PM,8.93,-0.64,0.77,0.02,0.00,0.01
7:27:24 PM,8.93,-0.63,0.78,0.01,-0.03,0.01
7:27:24 PM,8.93,-0.65,0.78,0.01,-0.02,0.01
7:27:24 PM,8.97,-0.63,0.69,0.01,-0.03,0.01
7:27:24 PM,8.94,-0.61,0.77,0.01,-0.03,0.01
7:27:24 PM,8.94,-0.64,0.75,0.01,-0.02,0.01
7:27:24 PM,8.93,-0.67,0.71,0.01,-0.02,0.01
7:27:25 PM,8.93,-0.66,0.72,0.01,-0.02,0.01
7:27:25 PM,8.97,-0.65,0.71,0.01,-0.02,0.01
7:27:25 PM,8.96,-0.68,0.75,0.02,-0.02,0.01
7:27:25 PM,8.98,-0.65,0.68,0.02,-0.00,0.01
7:27:25 PM,8.96,-0.66,0.73,0.01,-0.02,0.01
7:27:25 PM,8.98,-0.65,0.72,0.01,-0.02,0.01
7:27:25 PM,8.95,-0.66,0.74,0.01,-0.02,0.01
7:27:25 PM,8.98,-0.66,0.75,0.01,-0.02,0.01
7:27:25 PM,8.95,-0.64,0.75,0.01,-0.02,0.01
7:27:26 PM,8.98,-0.64,0.73,0.01,-0.03,0.01
7:27:26 PM,9.00,-0.66,0.73,0.01,-0.02,0.01
7:27:26 PM,8.95,-0.65,0.70,0.01,-0.03,0.01
7:27:26 PM,8.96,-0.62,0.73,-0.00,-0.03,0.01
7:27:26 PM,9.00,-0.67,0.68,0.00,-0.04,0.01
7:27:26 PM,8.96,-0.69,0.69,0.01,-0.02,0.01
7:27:26 PM,8.95,-0.67,0.70,0.01,-0.02,0.01
7:27:26 PM,8.95,-0.67,0.73,0.01,-0.01,0.01
7:27:26 PM,8.98,-0.65,0.67,0.01,-0.00,0.01
7:27:26 PM,8.95,-0.66,0.71,0.02,-0.01,0.01
7:27:27 PM,8.97,-0.64,0.75,0.02,-0.02,0.01
7:27:27 PM,8.94,-0.64,0.72,0.02,-0.01,0.01
7:27:27 PM,8.95,-0.64,0.76,0.01,-0.01,0.01
7:27:27 PM,8.98,-0.66,0.72,0.01,-0.02,0.01
7:27:27 PM,8.91,-0.68,0.77,0.02,0.01,0.01
7:27:27 PM,8.98,-0.65,0.73,0.03,0.02,0.01
7:27:27 PM,8.97,-0.66,0.71,0.02,-0.01,0.01
7:27:27 PM,8.98,-0.63,0.72,0.01,-0.01,0.01
7:27:27 PM,8.98,-0.66,0.72,0.02,0.01,0.01
7:27:28 PM,8.95,-0.66,0.70,0.01,-0.01,0.01
7:27:28 PM,8.93,-0.65,0.77,0.02,-0.01,0.01
7:27:28 PM,8.96,-0.66,0.73,0.02,-0.02,0.01
7:27:28 PM,8.95,-0.66,0.75,0.02,-0.03,0.01
7:27:28 PM,8.96,-0.65,0.74,0.01,-0.02,0.01
7:27:28 PM,8.94,-0.64,0.78,0.01,-0.03,0.01
7:27:28 PM,8.94,-0.67,0.75,0.00,-0.03,0.01
7:27:28 PM,8.95,-0.66,0.76,0.01,-0.02,0.01
7:27:28 PM,8.92,-0.69,0.72,0.01,-0.02,0.01
7:27:28 PM,8.96,-0.63,0.68,0.02,-0.12,0.01
7:27:29 PM,9.03,-0.68,0.71,0.01,-0.01,0.01
7:27:29 PM,8.95,-0.66,0.73,0.01,0.01,0.01
7:27:29 PM,8.92,-0.62,0.72,0.02,0.01,0.01
7:27:29 PM,9.00,-0.64,0.68,0.01,-0.03,0.01
7:27:29 PM,8.97,-0.63,0.70,0.00,-0.04,0.01
7:27:29 PM,8.96,-0.65,0.74,0.01,-0.02,0.01
7:27:29 PM,9.01,-0.66,0.70,0.02,-0.01,0.01
7:27:29 PM,9.01,-0.65,0.56,0.01,0.00,0.01
7:27:29 PM,9.05,-0.61,0.61,0.01,-0.03,0.01
7:27:30 PM,8.92,-0.64,0.67,-0.00,-0.03,0.01
7:27:30 PM,8.91,-0.66,0.76,-0.01,0.00,0.01
7:27:30 PM,8.99,-0.63,0.69,0.01,-0.02,0.01
7:27:30 PM,8.94,-0.64,0.67,0.01,-0.03,0.01
7:27:30 PM,8.98,-0.69,0.67,0.02,-0.02,0.01
7:27:30 PM,8.95,-0.66,0.64,0.02,-0.00,0.01
7:27:30 PM,9.00,-0.65,0.62,0.02,-0.03,0.01
7:27:30 PM,8.95,-0.67,0.69,0.00,-0.00,0.01
7:27:30 PM,8.94,-0.64,0.69,0.02,0.01,0.01
7:27:30 PM,8.91,-0.64,0.76,0.01,0.01,0.01
7:27:31 PM,8.98,-0.61,0.68,0.01,-0.02,0.01
7:27:31 PM,8.97,-0.60,0.68,0.01,-0.03,0.01
7:27:31 PM,8.97,-0.62,0.69,0.01,-0.01,0.01
7:27:31 PM,8.94,-0.63,0.69,0.00,-0.00,0.01
7:27:31 PM,8.98,-0.63,0.75,0.01,-0.01,0.01
7:27:31 PM,8.97,-0.64,0.68,0.02,-0.02,0.01
7:27:31 PM,8.95,-0.62,0.74,0.01,-0.04,0.01
7:27:31 PM,8.89,-0.64,0.71,0.00,-0.02,0.01
7:27:31 PM,8.94,-0.63,0.71,0.00,-0.01,0.01
7:27:32 PM,8.97,-0.67,0.71,0.01,-0.04,0.01
7:27:32 PM,8.97,-0.63,0.71,0.01,-0.00,0.01
7:27:32 PM,8.94,-0.66,0.74,0.01,-0.02,0.01
7:27:32 PM,8.89,-0.67,0.76,0.02,-0.02,0.01
7:27:32 PM,8.93,-0.62,0.65,-0.01,-0.05,0.01
7:27:32 PM,8.95,-0.60,0.71,-0.02,-0.07,0.01
7:27:32 PM,8.83,-0.63,0.89,-0.00,-0.04,0.01
7:27:32 PM,8.96,-0.65,0.74,0.03,0.02,0.01
7:27:32 PM,8.95,-0.65,0.71,0.03,0.01,0.01
7:27:32 PM,8.97,-0.63,0.70,0.02,0.02,0.01
7:27:33 PM,8.97,-0.63,0.71,0.00,-0.01,0.01
7:27:33 PM,8.97,-0.63,0.68,0.01,-0.04,0.01
7:27:33 PM,9.00,-0.60,0.68,0.00,-0.02,0.01
7:27:33 PM,8.96,-0.63,0.73,0.01,-0.02,0.01
7:27:33 PM,8.99,-0.62,0.66,0.01,0.00,0.01
7:27:33 PM,8.97,-0.67,0.70,0.01,0.01,0.01
7:27:33 PM,9.05,-0.65,0.60,0.01,-0.02,0.01
7:27:33 PM,8.99,-0.65,0.71,0.02,-0.00,0.01
7:27:33 PM,9.02,-0.64,0.67,0.01,0.00,0.01
7:27:34 PM,8.95,-0.67,0.72,0.01,-0.04,0.01
7:27:34 PM,8.96,-0.66,0.77,0.02,-0.03,0.01
7:27:34 PM,8.94,-0.67,0.72,0.01,0.01,0.01
7:27:34 PM,8.95,-0.62,0.70,0.01,-0.03,0.01
7:27:34 PM,8.94,-0.64,0.67,0.01,-0.01,0.01
7:27:34 PM,8.93,-0.62,0.66,0.01,-0.05,0.01
7:27:34 PM,8.99,-0.64,0.72,0.01,-0.03,0.01
7:27:34 PM,8.98,-0.62,0.66,0.01,0.00,0.01
7:27:34 PM,8.98,-0.62,0.65,0.01,-0.00,0.01
7:27:34 PM,8.97,-0.64,0.68,0.01,0.01,0.01
7:27:35 PM,8.94,-0.63,0.68,0.01,-0.02,0.01
7:27:35 PM,8.94,-0.61,0.71,0.01,-0.02,0.01
7:27:35 PM,8.96,-0.62,0.73,0.01,0.00,0.01
7:27:35 PM,8.91,-0.65,0.69,0.01,-0.00,0.01
7:27:35 PM,8.92,-0.64,0.67,0.02,-0.01,0.01
7:27:35 PM,8.99,-0.60,0.60,0.00,-0.04,0.01
7:27:35 PM,9.01,-0.65,0.65,0.00,-0.04,0.01
7:27:35 PM,8.95,-0.65,0.68,0.00,-0.02,0.01
7:27:35 PM,8.93,-0.65,0.74,0.00,-0.02,0.01
7:27:36 PM,8.98,-0.61,0.74,0.02,-0.02,0.01
7:27:36 PM,8.88,-0.63,0.69,0.02,-0.03,0.01
7:27:36 PM,8.99,-0.62,0.63,0.02,-0.01,0.01
7:27:36 PM,9.00,-0.65,0.63,0.01,-0.02,0.01
7:27:36 PM,8.89,-0.63,0.64,0.02,-0.01,0.01
7:27:36 PM,9.01,-0.64,0.64,0.01,-0.01,0.01
7:27:36 PM,8.92,-0.68,0.70,0.01,-0.00,0.01
7:27:36 PM,8.89,-0.61,0.66,0.02,0.01,0.01
7:27:36 PM,8.92,-0.63,0.63,0.01,-0.03,0.01
7:27:37 PM,8.99,-0.61,0.71,0.01,0.01,0.01
7:27:39 PM,8.90,-0.65,0.66,0.01,-0.04,0.01
7:27:39 PM,8.97,-0.63,0.69,0.01,0.01,0.01
7:27:39 PM,8.91,-0.58,0.74,0.01,-0.01,0.01
7:27:39 PM,8.94,-0.65,0.63,0.01,-0.02,0.01
7:27:39 PM,8.97,-0.60,0.71,0.01,-0.02,0.01
7:27:39 PM,8.99,-0.61,0.69,0.01,-0.01,0.01
7:27:39 PM,9.01,-0.62,0.68,0.01,-0.03,0.01
7:27:39 PM,8.99,-0.60,0.69,0.00,-0.04,0.01
7:27:39 PM,8.95,-0.66,0.68,0.02,-0.02,0.01
7:27:39 PM,8.87,-0.66,0.79,0.03,0.04,0.01
7:27:39 PM,8.87,-0.61,0.72,0.01,-0.03,0.01
7:27:39 PM,8.97,-0.65,0.71,0.02,0.01,0.01
7:27:40 PM,8.92,-0.64,0.75,0.01,-0.02,0.01
7:27:40 PM,8.96,-0.63,0.66,0.01,-0.02,0.01
7:27:40 PM,8.94,-0.64,0.74,0.01,-0.02,0.01
7:27:40 PM,8.98,-0.64,0.72,0.01,-0.02,0.01
7:27:40 PM,8.94,-0.64,0.74,0.01,-0.01,0.01
7:27:40 PM,8.90,-0.62,0.72,0.01,-0.03,0.01
7:27:40 PM,8.97,-0.61,0.68,0.01,-0.03,0.01
7:27:40 PM,8.93,-0.64,0.69,0.01,-0.03,0.01
7:27:40 PM,8.94,-0.66,0.71,0.02,-0.01,0.01
7:27:41 PM,8.96,-0.62,0.69,0.01,-0.04,0.01
7:27:41 PM,8.95,-0.61,0.66,0.01,-0.01,0.01
7:27:41 PM,8.96,-0.60,0.71,0.00,-0.02,0.01
7:27:41 PM,8.99,-0.64,0.71,0.00,-0.03,0.01
7:27:41 PM,8.94,-0.63,0.72,0.01,-0.02,0.01
7:27:41 PM,9.05,-0.60,0.72,0.00,-0.03,0.01
7:27:41 PM,9.00,-0.60,0.73,0.00,-0.03,0.01
7:27:41 PM,9.01,-0.63,0.67,0.00,-0.03,0.01
7:27:41 PM,9.00,-0.64,0.68,0.01,-0.01,0.01
7:27:41 PM,8.90,-0.66,0.72,0.01,-0.02,0.01
7:27:42 PM,8.97,-0.65,0.64,0.02,-0.04,0.01
7:27:42 PM,8.95,-0.64,0.73,0.01,-0.05,0.01
7:27:42 PM,8.87,-0.63,0.72,0.01,-0.02,0.01
7:27:42 PM,8.95,-0.63,0.68,0.01,-0.01,0.01
7:27:42 PM,9.01,-0.67,0.62,0.01,-0.02,0.01
7:27:42 PM,9.03,-0.64,0.64,0.01,-0.02,0.01
7:27:42 PM,8.99,-0.61,0.68,0.01,-0.00,0.01
7:27:42 PM,8.98,-0.61,0.70,0.01,-0.01,0.01
7:27:42 PM,8.98,-0.62,0.68,0.01,-0.01,0.01
7:27:42 PM,8.95,-0.66,0.72,0.01,-0.02,0.01
7:27:43 PM,9.00,-0.61,0.66,0.00,-0.01,0.01
7:27:43 PM,8.94,-0.66,0.70,0.01,-0.03,0.01
7:27:43 PM,9.00,-0.60,0.59,0.01,-0.04,0.01
7:27:43 PM,8.92,-0.65,0.68,0.00,-0.02,0.01
7:27:43 PM,8.98,-0.68,0.71,0.00,-0.03,0.01
7:27:43 PM,8.99,-0.64,0.71,0.01,-0.03,0.01
7:27:43 PM,9.03,-0.65,0.69,0.01,-0.04,0.01
7:27:43 PM,8.98,-0.61,0.68,0.01,-0.02,0.01
7:27:43 PM,8.99,-0.60,0.69,0.02,-0.02,0.01
7:27:44 PM,9.10,-0.70,0.64,0.01,-0.06,0.01
7:27:44 PM,8.94,-0.62,0.68,0.02,-0.05,0.01
7:27:44 PM,8.88,-0.62,0.72,0.01,-0.05,0.01
7:27:44 PM,9.07,-0.52,0.69,0.00,-0.02,0.01
7:27:44 PM,8.97,-0.64,0.73,0.01,-0.04,0.01
7:27:44 PM,8.96,-0.59,0.70,0.01,-0.02,0.01
7:27:44 PM,8.89,-0.61,0.78,0.02,0.00,0.01
7:27:44 PM,8.99,-0.65,0.68,-0.00,-0.02,0.01
7:27:44 PM,8.94,-0.67,0.65,-0.01,-0.02,0.01
7:27:45 PM,8.94,-0.64,0.66,0.00,-0.03,0.01
7:27:45 PM,8.96,-0.66,0.72,0.02,-0.01,0.01
7:27:45 PM,8.90,-0.63,0.67,0.02,-0.00,0.01
7:27:45 PM,8.99,-0.64,0.69,0.01,-0.01,0.01
7:27:45 PM,8.96,-0.68,0.65,0.02,0.00,0.01
7:27:45 PM,9.00,-0.65,0.63,0.01,0.00,0.01
7:27:45 PM,8.96,-0.61,0.64,0.01,-0.01,0.01
7:27:45 PM,8.96,-0.63,0.64,0.02,-0.01,0.01
7:27:45 PM,8.96,-0.60,0.72,0.01,-0.01,0.01
7:27:45 PM,8.90,-0.62,0.74,0.01,-0.04,0.01
7:27:46 PM,8.99,-0.63,0.67,0.01,-0.03,0.01
7:27:46 PM,8.98,-0.65,0.73,0.01,-0.03,0.01
7:27:46 PM,8.99,-0.61,0.64,0.02,-0.02,0.01
7:27:46 PM,9.00,-0.63,0.63,0.01,-0.04,0.01
7:27:46 PM,8.96,-0.65,0.72,0.01,-0.03,0.01
7:27:46 PM,8.90,-0.63,0.69,0.02,0.01,0.01
7:27:46 PM,8.97,-0.61,0.66,0.01,-0.01,0.01
7:27:46 PM,8.96,-0.64,0.68,0.01,-0.01,0.01
7:27:46 PM,8.99,-0.63,0.74,0.02,0.03,0.01
7:27:47 PM,8.99,-0.62,0.67,0.01,-0.01,0.01
7:27:47 PM,8.92,-0.62,0.76,0.01,-0.02,0.01
7:27:47 PM,8.97,-0.56,0.68,0.01,-0.03,0.01
7:27:47 PM,8.93,-0.62,0.68,0.02,-0.03,0.01
7:27:47 PM,8.98,-0.61,0.73,0.02,0.01,0.01
7:27:47 PM,8.92,-0.61,0.72,0.02,-0.01,0.01
7:27:47 PM,8.96,-0.63,0.66,0.01,-0.04,0.01
7:27:47 PM,8.88,-0.71,0.72,-0.00,-0.02,0.01
7:27:47 PM,8.98,-0.62,0.68,-0.00,-0.00,0.01
7:27:47 PM,8.92,-0.64,0.72,0.01,-0.03,0.01
7:27:48 PM,9.02,-0.64,0.65,0.01,-0.02,0.01
7:27:48 PM,8.97,-0.64,0.72,0.01,-0.01,0.01
7:27:48 PM,8.96,-0.61,0.67,0.02,0.00,0.01
7:27:48 PM,8.90,-0.64,0.71,0.01,-0.01,0.01
7:27:48 PM,8.92,-0.64,0.69,0.01,0.01,0.01
7:27:48 PM,8.93,-0.64,0.68,0.01,0.01,0.01
7:27:48 PM,8.95,-0.62,0.74,0.03,-0.01,0.01
7:27:48 PM,8.98,-0.63,0.62,0.01,-0.00,0.01
7:27:48 PM,8.97,-0.63,0.62,-0.01,-0.04,0.01
7:27:49 PM,8.90,-0.63,0.72,-0.00,-0.03,0.01
7:27:49 PM,8.76,-0.66,0.83,0.01,-0.02,0.01
7:27:49 PM,8.84,-0.62,0.86,0.05,0.08,0.01
7:27:49 PM,8.93,-0.63,0.83,0.06,0.09,0.01
7:27:49 PM,9.06,-0.56,0.62,0.02,0.01,0.01
7:27:49 PM,8.91,-0.60,0.68,0.01,-0.03,0.01
7:27:49 PM,8.98,-0.65,0.74,0.03,0.03,0.01
7:27:49 PM,8.96,-0.59,0.74,0.04,0.03,0.01
7:27:49 PM,8.84,-0.57,0.79,0.02,-0.03,0.01
7:27:49 PM,8.92,-0.60,0.79,0.01,0.01,0.01
7:27:50 PM,8.99,-0.61,0.61,0.00,-0.03,0.01
7:27:50 PM,9.04,-0.68,0.54,-0.02,-0.07,0.01
7:27:50 PM,9.03,-0.61,0.50,-0.02,-0.09,0.01
7:27:50 PM,8.83,-0.64,0.71,-0.02,-0.07,0.01
7:27:50 PM,8.88,-0.62,0.78,-0.01,-0.05,0.01
7:27:50 PM,8.97,-0.62,0.69,-0.01,-0.03,0.01
7:27:50 PM,9.01,-0.60,0.59,-0.00,-0.02,0.01
7:27:50 PM,9.01,-0.62,0.66,0.01,-0.04,0.01
7:27:50 PM,8.89,-0.65,0.66,0.00,-0.02,0.01
7:27:51 PM,8.92,-0.67,0.68,0.00,-0.03,0.01
7:27:51 PM,8.94,-0.66,0.73,0.03,0.05,0.01
7:27:51 PM,8.93,-0.64,0.73,0.04,0.05,0.01
7:27:51 PM,9.00,-0.62,0.65,0.03,0.02,0.01
7:27:51 PM,9.04,-0.63,0.55,0.00,-0.01,0.01
7:27:51 PM,9.01,-0.67,0.63,0.01,-0.05,0.01
7:27:51 PM,8.89,-0.66,0.74,0.01,-0.02,0.01
7:27:51 PM,9.00,-0.62,0.66,0.01,-0.00,0.01
7:27:51 PM,9.03,-0.62,0.62,0.02,-0.02,0.01
7:27:51 PM,8.98,-0.67,0.64,0.01,-0.02,0.01
7:27:52 PM,8.97,-0.62,0.68,0.01,-0.01,0.01
7:27:52 PM,8.94,-0.61,0.71,0.01,-0.01,0.01
7:27:52 PM,9.07,-0.63,0.65,0.01,-0.03,0.01
7:27:52 PM,8.93,-0.63,0.76,0.01,-0.04,0.01
7:27:52 PM,8.95,-0.63,0.70,0.01,-0.01,0.01
7:27:52 PM,8.97,-0.62,0.69,0.00,-0.02,0.01
7:27:52 PM,9.00,-0.62,0.70,0.00,-0.04,0.01
7:27:52 PM,9.01,-0.66,0.69,0.01,-0.03,0.01
7:27:52 PM,8.97,-0.65,0.69,0.01,-0.02,0.01
7:27:53 PM,8.97,-0.69,0.72,0.02,-0.02,0.01
7:27:53 PM,8.99,-0.63,0.67,0.01,-0.00,0.01
7:27:53 PM,8.95,-0.63,0.72,0.02,-0.02,0.01
7:27:53 PM,8.95,-0.63,0.70,0.02,-0.01,0.01
7:27:53 PM,8.91,-0.62,0.72,0.02,-0.02,0.01
7:27:53 PM,8.94,-0.64,0.71,0.02,-0.01,0.01
7:27:53 PM,8.93,-0.61,0.68,0.01,-0.01,0.01
7:27:53 PM,8.94,-0.62,0.70,0.01,-0.02,0.01
7:27:53 PM,8.95,-0.62,0.70,0.02,-0.02,0.01
7:27:53 PM,8.92,-0.64,0.71,0.02,0.00,0.01
7:27:54 PM,8.96,-0.62,0.68,0.01,-0.00,0.01
7:27:54 PM,8.99,-0.62,0.73,0.01,-0.03,0.01
7:27:54 PM,8.98,-0.61,0.68,0.01,-0.02,0.01
7:27:54 PM,8.92,-0.60,0.72,0.00,-0.03,0.01
7:27:54 PM,8.94,-0.62,0.68,0.00,-0.03,0.01
7:27:54 PM,8.91,-0.62,0.69,0.01,-0.03,0.01
7:27:54 PM,8.94,-0.61,0.69,0.01,-0.01,0.01
7:27:54 PM,8.97,-0.62,0.70,0.01,-0.00,0.01
7:27:54 PM,8.98,-0.65,0.66,0.01,-0.01,0.01
7:27:55 PM,8.93,-0.60,0.72,0.01,-0.01,0.01
7:27:55 PM,9.03,-0.64,0.68,0.00,-0.03,0.01
7:27:55 PM,8.95,-0.62,0.67,0.01,-0.01,0.01
7:27:55 PM,8.97,-0.62,0.67,0.01,-0.02,0.01
7:27:55 PM,8.98,-0.61,0.72,0.01,0.01,0.01
7:27:55 PM,9.00,-0.62,0.66,0.01,-0.01,0.01
7:27:55 PM,9.03,-0.60,0.63,0.01,-0.02,0.01
7:27:55 PM,8.98,-0.63,0.66,0.00,-0.05,0.01
7:27:55 PM,9.03,-0.62,0.68,-0.00,-0.03,0.01
7:27:55 PM,8.96,-0.63,0.67,0.01,-0.02,0.01
7:27:56 PM,8.90,-0.67,0.65,0.00,-0.03,0.01
7:27:56 PM,9.00,-0.63,0.64,0.01,-0.03,0.01
7:27:56 PM,9.00,-0.65,0.63,0.01,-0.00,0.01
7:27:56 PM,9.05,-0.62,0.63,0.01,0.00,0.01
7:27:56 PM,8.97,-0.62,0.61,0.01,-0.00,0.01
7:27:56 PM,8.99,-0.61,0.63,0.01,-0.02,0.01
7:27:56 PM,9.01,-0.69,0.64,0.01,-0.04,0.01
7:27:56 PM,9.04,-0.59,0.71,0.04,0.04,0.01
7:27:56 PM,8.91,-0.59,0.78,0.03,0.03,0.01
7:27:57 PM,8.91,-0.60,0.75,0.01,-0.00,0.01
7:27:57 PM,8.94,-0.62,0.72,0.01,-0.00,0.01
7:27:57 PM,8.94,-0.63,0.67,0.01,-0.02,0.01
7:27:57 PM,8.92,-0.63,0.70,0.02,-0.00,0.01
7:27:57 PM,8.87,-0.55,0.62,0.00,-0.01,0.01
7:27:57 PM,8.86,-0.51,0.61,-0.03,-0.06,0.01
7:27:57 PM,8.88,-0.58,0.62,-0.03,-0.07,0.01
7:27:57 PM,8.96,-0.67,0.62,-0.01,-0.03,0.01
7:27:57 PM,8.99,-0.61,0.63,0.00,-0.05,0.01
7:27:58 PM,9.04,-0.62,0.66,0.00,-0.02,0.01
7:27:58 PM,8.87,-0.61,0.59,0.01,-0.02,0.01
7:27:58 PM,9.06,-0.79,0.75,0.03,0.05,0.01
7:27:58 PM,9.01,-0.64,0.82,0.05,0.06,0.01
7:27:58 PM,8.86,-0.57,0.85,0.03,0.03,0.01
7:27:58 PM,8.90,-0.60,0.73,0.02,0.01,0.01
7:27:58 PM,8.89,-0.61,0.74,0.02,0.01,0.01
7:27:58 PM,8.97,-0.75,0.68,0.02,0.01,0.01
7:27:58 PM,9.00,-0.69,0.67,0.04,0.01,0.01
7:27:58 PM,9.06,-0.64,0.62,0.04,0.03,0.01
7:27:59 PM,8.95,-0.62,0.63,0.03,0.00,0.01
7:27:59 PM,8.95,-0.60,0.66,0.02,0.01,0.01
7:27:59 PM,8.95,-0.64,0.66,0.01,-0.01,0.01
7:27:59 PM,8.99,-0.66,0.73,0.01,0.03,0.01
7:27:59 PM,9.00,-0.64,0.68,0.03,0.03,0.01
7:27:59 PM,8.98,-0.64,0.66,0.03,0.02,0.01
7:27:59 PM,8.98,-0.60,0.68,0.01,-0.01,0.01
7:27:59 PM,8.96,-0.61,0.62,0.01,-0.00,0.01
7:27:59 PM,8.99,-0.62,0.61,0.01,-0.03,0.01
7:28:00 PM,9.02,-0.68,0.62,0.01,-0.03,0.01
7:28:00 PM,9.01,-0.67,0.66,0.02,-0.01,0.01
7:28:00 PM,9.09,-0.65,0.57,0.02,-0.02,0.01
7:28:00 PM,9.02,-0.61,0.58,0.03,0.01,0.01
7:28:00 PM,8.99,-0.64,0.68,0.01,-0.01,0.01
7:28:00 PM,8.99,-0.63,0.66,0.02,-0.00,0.01
7:28:00 PM,8.92,-0.62,0.65,0.01,-0.01,0.01
7:28:00 PM,9.00,-0.61,0.60,0.00,-0.02,0.01
7:28:00 PM,8.97,-0.63,0.64,0.00,-0.05,0.01
7:28:00 PM,9.02,-0.59,0.64,0.01,-0.02,0.01
7:28:01 PM,8.99,-0.64,0.69,0.01,-0.02,0.01
7:28:01 PM,8.97,-0.63,0.65,0.01,-0.01,0.01
7:28:01 PM,9.01,-0.62,0.65,0.01,-0.05,0.01
7:28:01 PM,8.86,-0.62,0.63,0.01,-0.03,0.01
7:28:01 PM,8.79,-0.62,0.95,0.03,0.02,0.01
7:28:01 PM,8.87,-0.64,0.79,0.04,0.05,0.01
7:28:01 PM,9.00,-0.58,0.55,0.03,0.01,0.01
7:28:01 PM,9.01,-0.62,0.58,0.00,-0.02,0.01
7:28:01 PM,8.98,-0.64,0.65,-0.00,-0.03,0.01
7:28:02 PM,8.92,-0.64,0.70,0.01,-0.02,0.01
7:28:02 PM,8.97,-0.63,0.65,0.02,0.01,0.01
7:28:02 PM,9.04,-0.62,0.59,0.01,-0.01,0.01
7:28:02 PM,9.01,-0.58,0.62,0.01,-0.01,0.01
7:28:02 PM,8.98,-0.62,0.66,0.01,-0.02,0.01
7:28:02 PM,9.01,-0.66,0.60,0.01,-0.03,0.01
7:28:02 PM,8.98,-0.64,0.60,0.01,-0.05,0.01
7:28:02 PM,8.97,-0.67,0.67,0.01,-0.01,0.01
7:28:02 PM,9.03,-0.63,0.58,0.01,-0.02,0.01
7:28:02 PM,8.98,-0.65,0.60,0.01,-0.04,0.01
7:28:03 PM,8.96,-0.63,0.60,0.00,-0.05,0.01
7:28:03 PM,9.04,-0.63,0.60,0.01,-0.03,0.01
7:28:03 PM,8.99,-0.65,0.62,0.02,0.00,0.01
7:28:03 PM,8.98,-0.66,0.63,0.01,0.00,0.01
7:28:03 PM,9.02,-0.65,0.61,0.01,-0.01,0.01
7:28:03 PM,8.95,-0.65,0.64,0.02,-0.01,0.01
7:28:03 PM,8.93,-0.64,0.67,0.02,0.01,0.01
7:28:03 PM,8.94,-0.61,0.68,0.02,-0.01,0.01
7:28:03 PM,8.97,-0.61,0.63,0.01,-0.02,0.01
7:28:04 PM,8.94,-0.64,0.67,0.00,-0.01,0.01
7:28:04 PM,8.97,-0.59,0.69,0.01,-0.00,0.01
7:28:04 PM,8.97,-0.64,0.67,0.01,-0.00,0.01
7:28:04 PM,8.95,-0.60,0.75,0.04,0.03,0.01
7:28:04 PM,8.93,-0.60,0.68,0.03,0.03,0.01
7:28:04 PM,8.96,-0.58,0.63,0.02,0.01,0.01
7:28:04 PM,8.95,-0.59,0.64,0.01,0.01,0.01
7:28:04 PM,9.01,-0.61,0.62,0.01,-0.03,0.01
7:28:04 PM,9.00,-0.64,0.63,0.02,-0.02,0.01
7:28:04 PM,8.96,-0.65,0.67,0.02,-0.00,0.01
7:28:05 PM,8.98,-0.60,0.61,0.01,-0.01,0.01
7:28:05 PM,8.98,-0.63,0.64,0.00,-0.01,0.01
7:28:05 PM,8.96,-0.61,0.63,0.00,-0.02,0.01
7:28:05 PM,8.98,-0.61,0.68,0.01,-0.02,0.01
7:28:05 PM,8.99,-0.61,0.65,0.01,-0.01,0.01
7:28:05 PM,8.96,-0.62,0.67,0.01,-0.01,0.01
7:28:05 PM,8.99,-0.62,0.65,0.01,-0.02,0.01
7:28:05 PM,8.97,-0.63,0.68,0.00,-0.02,0.01
7:28:05 PM,9.00,-0.63,0.68,0.00,-0.00,0.01
7:28:06 PM,8.99,-0.61,0.65,0.01,-0.01,0.01
7:28:06 PM,8.99,-0.62,0.65,0.01,-0.04,0.01
7:28:06 PM,8.94,-0.65,0.67,0.01,-0.01,0.01
7:28:06 PM,8.97,-0.62,0.64,0.00,-0.02,0.01
7:28:06 PM,9.00,-0.65,0.64,0.01,-0.01,0.01
7:28:06 PM,8.96,-0.62,0.63,0.02,-0.02,0.01
7:28:06 PM,8.97,-0.60,0.66,0.02,-0.03,0.01
7:28:06 PM,8.99,-0.62,0.67,0.02,-0.01,0.01
7:28:06 PM,8.95,-0.64,0.64,0.02,-0.01,0.01
7:28:06 PM,8.95,-0.66,0.62,0.01,-0.03,0.01
7:28:07 PM,8.96,-0.63,0.68,0.02,-0.01,0.01
7:28:07 PM,8.94,-0.62,0.65,0.02,-0.02,0.01
7:28:07 PM,8.93,-0.65,0.68,0.00,-0.01,0.01
7:28:07 PM,8.94,-0.59,0.65,0.01,-0.03,0.01
7:28:07 PM,8.92,-0.58,0.66,-0.01,-0.06,0.01
7:28:07 PM,9.01,-0.60,0.65,0.00,-0.08,0.01
7:28:07 PM,8.95,-0.64,0.64,0.01,-0.03,0.01
7:28:07 PM,8.97,-0.65,0.61,0.01,-0.01,0.01
7:28:07 PM,9.03,-0.57,0.61,0.01,-0.03,0.01
7:28:08 PM,9.07,-0.63,0.51,-0.00,-0.03,0.01
7:28:08 PM,9.04,-0.61,0.64,0.00,-0.01,0.01
7:28:08 PM,8.92,-0.64,0.67,0.00,-0.04,0.01
7:28:08 PM,8.94,-0.61,0.69,0.01,-0.03,0.01
7:28:08 PM,8.96,-0.55,0.65,0.01,-0.03,0.01
7:28:08 PM,9.00,-0.62,0.69,0.01,-0.00,0.01
7:28:08 PM,8.99,-0.62,0.61,0.00,-0.02,0.01
7:28:08 PM,9.01,-0.63,0.65,-0.00,-0.02,0.01
7:28:08 PM,9.02,-0.60,0.67,0.01,-0.04,0.01
7:28:09 PM,8.94,-0.66,0.73,0.01,-0.03,0.01
7:28:09 PM,8.95,-0.62,0.67,0.00,0.01,0.01
7:28:09 PM,8.94,-0.63,0.68,0.00,-0.00,0.01
7:28:09 PM,8.92,-0.62,0.64,0.01,-0.02,0.01
7:28:09 PM,9.00,-0.64,0.66,0.01,0.02,0.01
7:28:09 PM,8.95,-0.63,0.69,0.02,-0.02,0.01
7:28:09 PM,8.95,-0.63,0.64,0.01,-0.00,0.01
7:28:09 PM,8.93,-0.67,0.61,0.00,0.00,0.01
7:28:09 PM,8.99,-0.65,0.61,-0.00,0.01,0.01
7:28:09 PM,8.97,-0.59,0.63,0.01,-0.01,0.01
7:28:10 PM,9.02,-0.61,0.66,0.00,0.01,0.01
7:28:10 PM,9.00,-0.62,0.63,0.01,-0.03,0.01
7:28:10 PM,8.95,-0.61,0.64,0.01,-0.02,0.01
7:28:10 PM,8.99,-0.59,0.67,0.01,-0.01,0.01
7:28:10 PM,8.91,-0.60,0.68,0.01,-0.02,0.01
7:28:10 PM,8.91,-0.64,0.64,0.02,-0.06,0.01
7:28:10 PM,8.97,-0.61,0.63,0.02,-0.02,0.01
7:28:10 PM,8.94,-0.64,0.64,0.02,-0.01,0.01
7:28:10 PM,8.98,-0.63,0.65,0.01,-0.03,0.01
7:28:11 PM,8.91,-0.61,0.69,0.00,-0.03,0.01
7:28:11 PM,8.97,-0.60,0.69,0.00,-0.02,0.01
7:28:11 PM,8.96,-0.60,0.66,0.01,-0.02,0.01
7:28:11 PM,8.95,-0.65,0.65,0.02,-0.03,0.01
7:28:11 PM,8.99,-0.63,0.67,0.00,-0.02,0.01
7:28:11 PM,8.98,-0.61,0.62,0.01,-0.01,0.01
7:28:11 PM,9.00,-0.60,0.66,0.01,-0.03,0.01
7:28:11 PM,8.98,-0.58,0.64,0.01,-0.03,0.01
7:28:11 PM,9.00,-0.64,0.64,0.01,-0.01,0.01
7:28:11 PM,8.92,-0.64,0.63,0.01,-0.03,0.01
7:28:12 PM,9.00,-0.61,0.63,0.01,-0.03,0.01
7:28:12 PM,8.99,-0.60,0.63,0.01,-0.06,0.01
7:28:12 PM,8.97,-0.60,0.59,0.00,-0.03,0.01
7:28:12 PM,8.91,-0.66,0.61,-0.01,-0.02,0.01
7:28:12 PM,9.03,-0.64,0.67,0.00,-0.02,0.01
7:28:12 PM,8.95,-0.64,0.61,0.01,0.00,0.01
7:28:12 PM,8.98,-0.59,0.66,0.01,-0.01,0.01
7:28:12 PM,8.95,-0.65,0.64,0.01,-0.01,0.01
7:28:12 PM,9.01,-0.65,0.64,-0.00,-0.01,0.01
7:28:13 PM,9.00,-0.64,0.62,0.01,-0.01,0.01
7:28:13 PM,9.04,-0.61,0.66,0.02,0.00,0.01
7:28:13 PM,8.94,-0.60,0.65,0.01,-0.02,0.01
7:28:13 PM,8.98,-0.62,0.68,0.01,-0.01,0.01
7:28:13 PM,8.95,-0.63,0.61,0.01,-0.03,0.01
7:28:13 PM,8.98,-0.64,0.62,0.01,-0.01,0.01
7:28:13 PM,8.98,-0.62,0.59,0.01,-0.02,0.01
7:28:13 PM,8.99,-0.62,0.62,0.01,-0.02,0.01
7:28:13 PM,9.00,-0.61,0.63,0.01,-0.00,0.01
7:28:13 PM,9.01,-0.62,0.67,0.02,-0.00,0.01
7:28:14 PM,9.04,-0.59,0.56,0.01,-0.02,0.01
7:28:14 PM,9.03,-0.62,0.58,0.01,-0.03,0.01
7:28:14 PM,8.97,-0.63,0.57,0.02,-0.00,0.01
7:28:14 PM,8.98,-0.61,0.62,0.01,-0.01,0.01
7:28:14 PM,9.00,-0.63,0.66,0.01,-0.02,0.01
7:28:14 PM,8.99,-0.62,0.60,0.01,-0.01,0.01
7:28:14 PM,8.99,-0.66,0.62,0.01,-0.03,0.01
7:28:14 PM,8.96,-0.57,0.62,0.01,-0.01,0.01
7:28:14 PM,9.00,-0.60,0.61,0.00,-0.01,0.01
7:28:15 PM,8.98,-0.61,0.64,0.00,-0.02,0.01
7:28:15 PM,9.00,-0.62,0.63,0.01,-0.02,0.01
7:28:15 PM,8.97,-0.63,0.61,0.01,0.00,0.01
7:28:15 PM,8.98,-0.64,0.59,0.01,-0.03,0.01
7:28:15 PM,9.00,-0.63,0.58,0.01,-0.02,0.01
7:28:15 PM,8.99,-0.63,0.59,0.01,-0.01,0.01
7:28:15 PM,8.99,-0.62,0.60,0.01,-0.00,0.01
7:28:15 PM,8.98,-0.61,0.59,0.01,-0.02,0.01
7:28:15 PM,8.99,-0.60,0.58,0.00,-0.03,0.01
7:28:15 PM,8.97,-0.62,0.60,0.01,-0.01,0.01
7:28:16 PM,9.00,-0.57,0.62,0.02,-0.01,0.01
7:28:16 PM,8.95,-0.59,0.60,0.00,-0.04,0.01
7:28:16 PM,8.98,-0.61,0.61,0.01,-0.02,0.01
7:28:16 PM,9.00,-0.59,0.61,0.01,-0.02,0.01
7:28:16 PM,8.98,-0.63,0.54,0.02,-0.02,0.01
7:28:16 PM,8.95,-0.62,0.62,-0.01,-0.05,0.01
7:28:16 PM,9.03,-0.60,0.55,0.00,-0.04,0.01
7:28:16 PM,8.98,-0.64,0.52,0.01,-0.03,0.01
7:28:16 PM,8.95,-0.63,0.57,0.01,-0.00,0.01
7:28:17 PM,8.98,-0.61,0.57,0.01,-0.02,0.01
7:28:17 PM,8.99,-0.61,0.53,0.01,-0.01,0.01
7:28:17 PM,9.02,-0.64,0.52,0.01,-0.03,0.01
7:28:17 PM,9.00,-0.55,0.58,0.01,-0.03,0.01
7:28:17 PM,8.97,-0.59,0.54,-0.00,-0.03,0.01
7:28:17 PM,8.99,-0.58,0.56,0.01,-0.05,0.01
7:28:17 PM,8.98,-0.66,0.54,0.01,-0.01,0.01
7:28:17 PM,9.05,-0.62,0.50,0.01,-0.01,0.01
7:28:17 PM,8.99,-0.63,0.51,0.01,-0.01,0.01
7:28:17 PM,9.05,-0.65,0.54,0.02,0.00,0.01
7:28:18 PM,8.96,-0.64,0.45,0.02,-0.01,0.01
7:28:18 PM,8.98,-0.61,0.53,0.02,-0.01,0.01
7:28:18 PM,8.94,-0.60,0.57,0.01,0.00,0.01
7:28:18 PM,8.97,-0.61,0.58,0.02,0.01,0.01
7:28:18 PM,8.97,-0.61,0.56,0.01,-0.02,0.01
7:28:18 PM,8.98,-0.57,0.58,0.01,-0.01,0.01
7:28:18 PM,8.98,-0.62,0.59,0.00,-0.01,0.01
7:28:18 PM,8.99,-0.61,0.61,0.01,-0.03,0.01
7:28:18 PM,8.94,-0.61,0.68,0.01,-0.03,0.01
7:28:19 PM,8.98,-0.63,0.67,0.01,-0.01,0.01
7:28:19 PM,8.95,-0.61,0.65,-0.00,-0.03,0.01
7:28:19 PM,8.93,-0.61,0.70,-0.00,-0.02,0.01
7:28:19 PM,8.73,-0.54,0.72,-0.02,-0.09,0.01
7:28:19 PM,8.87,-0.60,0.84,-0.00,-0.06,0.01
7:28:19 PM,8.98,-0.59,0.58,0.01,0.01,0.01
7:28:19 PM,9.03,-0.58,0.60,0.01,-0.03,0.01
7:28:19 PM,8.96,-0.61,0.58,0.01,-0.03,0.01
7:28:19 PM,8.95,-0.60,0.67,0.01,-0.01,0.01
7:28:19 PM,8.98,-0.61,0.68,0.01,-0.00,0.01
7:28:20 PM,8.97,-0.62,0.67,0.01,0.00,0.01
7:28:20 PM,8.95,-0.61,0.65,0.01,-0.01,0.01
7:28:20 PM,8.97,-0.61,0.64,0.01,-0.01,0.01
7:28:20 PM,8.98,-0.63,0.61,0.01,-0.02,0.01
7:28:20 PM,9.00,-0.62,0.60,0.01,-0.03,0.01
7:28:20 PM,9.00,-0.62,0.62,0.01,-0.02,0.01
7:28:20 PM,8.99,-0.62,0.65,0.01,0.00,0.01
7:28:20 PM,8.99,-0.64,0.63,0.01,-0.00,0.01
7:28:20 PM,8.94,-0.61,0.66,0.01,-0.02,0.01
7:28:21 PM,8.91,-0.63,0.64,0.00,0.01,0.01
7:28:21 PM,8.96,-0.60,0.67,0.00,-0.01,0.01
7:28:21 PM,9.00,-0.58,0.66,0.01,-0.01,0.01
7:28:21 PM,8.98,-0.60,0.66,0.01,-0.01,0.01
7:28:21 PM,8.98,-0.62,0.70,0.01,-0.00,0.01
7:28:21 PM,8.98,-0.60,0.66,0.02,0.01,0.01
7:28:21 PM,8.97,-0.62,0.72,0.02,-0.02,0.01
7:28:21 PM,8.96,-0.62,0.68,0.01,0.01,0.01
7:28:21 PM,8.98,-0.59,0.68,0.01,-0.01,0.01
7:28:22 PM,8.97,-0.60,0.72,0.01,-0.02,0.01
7:28:22 PM,8.98,-0.60,0.66,0.01,-0.01,0.01
7:28:22 PM,8.98,-0.63,0.69,0.01,-0.01,0.01
7:28:22 PM,8.97,-0.60,0.67,0.01,-0.03,0.01
7:28:22 PM,8.98,-0.64,0.68,0.00,-0.02,0.01
7:28:22 PM,8.91,-0.62,0.74,0.00,-0.02,0.01
7:28:22 PM,9.00,-0.59,0.68,0.00,-0.02,0.01
7:28:22 PM,8.94,-0.58,0.75,0.00,-0.01,0.01
7:28:22 PM,8.93,-0.58,0.75,0.01,-0.01,0.01
7:28:23 PM,8.91,-0.58,0.77,0.01,-0.01,0.01
7:28:23 PM,8.93,-0.60,0.74,0.02,0.00,0.01
7:28:23 PM,8.97,-0.58,0.74,0.02,-0.01,0.01
7:28:23 PM,8.93,-0.62,0.76,0.02,-0.03,0.01
7:28:23 PM,8.90,-0.65,0.77,0.02,0.01,0.01
7:28:23 PM,8.90,-0.57,0.74,0.01,-0.05,0.01
7:28:23 PM,8.98,-0.60,0.68,0.00,-0.01,0.01
7:28:23 PM,8.98,-0.59,0.69,0.01,-0.03,0.01
7:28:23 PM,8.94,-0.57,0.71,0.00,-0.04,0.01
7:28:23 PM,8.96,-0.57,0.72,0.00,-0.03,0.01
7:28:24 PM,9.01,-0.62,0.66,0.01,-0.01,0.01
7:28:24 PM,9.04,-0.62,0.66,0.02,-0.03,0.01
7:28:24 PM,8.92,-0.64,0.68,0.01,-0.01,0.01
7:28:24 PM,8.91,-0.61,0.74,0.01,-0.01,0.01
7:28:24 PM,8.94,-0.62,0.72,0.00,-0.01,0.01
7:28:24 PM,8.97,-0.60,0.71,0.01,-0.02,0.01
7:28:24 PM,8.95,-0.57,0.75,0.01,-0.03,0.01
7:28:24 PM,8.96,-0.58,0.72,0.01,-0.02,0.01
7:28:24 PM,8.95,-0.61,0.71,0.00,-0.04,0.01
7:28:25 PM,8.93,-0.60,0.71,-0.01,-0.04,0.01
7:28:25 PM,8.92,-0.62,0.79,0.01,-0.03,0.01
7:28:25 PM,8.93,-0.58,0.76,0.01,-0.02,0.01
7:28:25 PM,8.99,-0.59,0.73,0.01,-0.02,0.01
7:28:25 PM,8.92,-0.61,0.74,0.00,-0.01,0.01
7:28:25 PM,8.94,-0.61,0.77,0.01,0.01,0.01
7:28:25 PM,8.94,-0.60,0.77,0.01,0.01,0.01
7:28:25 PM,8.94,-0.59,0.71,0.01,-0.02,0.01
7:28:25 PM,8.95,-0.57,0.75,0.00,-0.03,0.01
7:28:25 PM,8.92,-0.60,0.79,0.01,-0.03,0.01
7:28:26 PM,8.95,-0.61,0.78,0.00,-0.02,0.01
7:28:26 PM,9.03,-0.59,0.63,-0.00,-0.02,0.01
7:28:26 PM,8.93,-0.60,0.80,-0.00,-0.04,0.01
7:28:26 PM,8.89,-0.60,0.84,0.01,-0.02,0.01
7:28:26 PM,8.96,-0.57,0.74,0.02,-0.01,0.01
7:28:26 PM,8.96,-0.59,0.77,0.02,-0.02,0.01
7:28:26 PM,9.01,-0.59,0.76,0.03,-0.02,0.01
7:28:26 PM,9.00,-0.58,0.72,0.01,-0.02,0.01
7:28:26 PM,8.97,-0.61,0.70,0.02,-0.01,0.01
7:28:26 PM,8.93,-0.59,0.81,0.01,-0.01,0.01
7:28:27 PM,8.84,-0.59,0.79,0.02,0.01,0.01
7:28:27 PM,9.02,-0.59,0.80,0.02,0.03,0.01
7:28:27 PM,9.00,-0.59,0.72,0.01,-0.02,0.01
7:28:27 PM,9.02,-0.57,0.68,0.00,-0.02,0.01
7:28:27 PM,8.92,-0.59,0.72,-0.00,-0.05,0.01
7:28:27 PM,8.94,-0.62,0.80,-0.00,-0.03,0.01
7:28:27 PM,8.93,-0.63,0.79,0.02,-0.01,0.01
7:28:27 PM,9.00,-0.56,0.72,0.02,-0.00,0.01
7:28:27 PM,8.91,-0.57,0.73,-0.00,-0.03,0.01
7:28:28 PM,8.86,-0.62,0.91,0.01,-0.02,0.01
7:28:28 PM,8.95,-0.60,0.75,0.02,0.02,0.01
7:28:28 PM,9.03,-0.60,0.67,0.01,-0.03,0.01
7:28:28 PM,8.94,-0.62,0.75,-0.01,-0.04,0.01
7:28:28 PM,8.94,-0.59,0.77,0.01,-0.04,0.01
7:28:28 PM,8.92,-0.60,0.73,0.02,-0.03,0.01
7:28:28 PM,8.95,-0.60,0.74,0.01,-0.03,0.01
7:28:28 PM,8.99,-0.58,0.73,0.01,-0.01,0.01
7:28:28 PM,8.96,-0.60,0.71,0.01,0.00,0.01
7:28:28 PM,8.97,-0.61,0.76,0.01,-0.02,0.01
7:28:29 PM,8.97,-0.60,0.74,0.01,-0.01,0.01
7:28:29 PM,9.02,-0.57,0.63,0.00,-0.05,0.01
7:28:29 PM,8.98,-0.61,0.72,0.00,-0.05,0.01
7:28:29 PM,8.91,-0.61,0.85,0.01,-0.02,0.01
7:28:29 PM,8.87,-0.57,0.82,0.02,-0.01,0.01
7:28:29 PM,8.89,-0.58,0.81,0.00,-0.04,0.01
7:28:29 PM,8.92,-0.58,0.80,0.01,-0.03,0.01
7:28:29 PM,8.96,-0.60,0.69,-0.00,-0.04,0.01
7:28:29 PM,9.00,-0.61,0.77,0.01,0.00,0.01
7:28:30 PM,9.00,-0.58,0.60,0.01,-0.01,0.01
7:28:30 PM,8.94,-0.62,0.80,0.01,-0.03,0.01
7:28:30 PM,9.00,-0.59,0.68,0.00,-0.02,0.01
7:28:30 PM,8.94,-0.60,0.72,-0.01,-0.04,0.01
7:28:30 PM,8.93,-0.58,0.74,0.00,-0.03,0.01
7:28:30 PM,8.97,-0.58,0.75,0.01,-0.04,0.01
7:28:30 PM,8.92,-0.61,0.72,0.02,-0.02,0.01
7:28:30 PM,8.94,-0.62,0.79,0.01,0.01,0.01
7:28:30 PM,8.93,-0.59,0.81,0.01,-0.00,0.01
7:28:30 PM,8.95,-0.59,0.77,0.01,0.00,0.01
7:28:31 PM,8.92,-0.63,0.81,0.01,-0.01,0.01
7:28:31 PM,8.97,-0.59,0.75,0.00,-0.01,0.01
7:28:31 PM,8.92,-0.60,0.79,0.02,0.00,0.01
7:28:31 PM,8.88,-0.59,0.84,0.01,-0.02,0.01
7:28:31 PM,8.96,-0.57,0.78,0.01,-0.02,0.01
7:28:31 PM,8.98,-0.55,0.73,-0.01,-0.04,0.01
7:28:31 PM,8.95,-0.61,0.80,-0.01,-0.05,0.01
7:28:31 PM,8.93,-0.64,0.79,0.01,-0.03,0.01
7:28:31 PM,8.93,-0.59,0.79,0.01,0.00,0.01
7:28:32 PM,8.94,-0.59,0.80,0.01,-0.02,0.01
7:28:32 PM,8.89,-0.60,0.79,0.01,-0.00,0.01
7:28:32 PM,8.95,-0.61,0.76,0.01,-0.00,0.01
7:28:32 PM,8.96,-0.63,0.69,-0.00,-0.03,0.01
7:28:32 PM,9.26,-0.62,0.48,-0.01,-0.08,0.01
7:28:32 PM,9.18,-0.62,0.62,0.01,-0.03,0.01
7:28:32 PM,9.06,-0.57,0.68,0.01,-0.01,0.01
7:28:32 PM,8.97,-0.61,0.75,0.02,-0.02,0.01
7:28:32 PM,9.00,-0.58,0.73,0.01,-0.01,0.01
7:28:33 PM,9.02,-0.59,0.68,0.01,-0.03,0.01
7:28:33 PM,8.96,-0.63,0.78,0.01,-0.02,0.01
7:28:33 PM,8.94,-0.61,0.76,0.00,-0.04,0.01
7:28:34 PM,8.99,-0.59,0.74,0.00,-0.02,0.01
7:28:35 PM,8.98,-0.62,0.80,0.00,-0.02,0.01
7:28:35 PM,8.93,-0.62,0.78,0.01,-0.00,0.01
7:28:35 PM,8.98,-0.55,0.81,0.02,-0.01,0.01
7:28:35 PM,9.01,-0.59,0.75,0.01,0.00,0.01
7:28:35 PM,8.96,-0.62,0.83,0.02,-0.01,0.01
7:28:35 PM,9.00,-0.61,0.79,0.02,-0.01,0.01
7:28:35 PM,9.01,-0.59,0.74,0.01,-0.02,0.01
7:28:35 PM,8.97,-0.59,0.75,0.01,-0.02,0.01
7:28:35 PM,8.93,-0.62,0.75,0.01,-0.01,0.01
7:28:35 PM,8.95,-0.60,0.78,0.01,-0.02,0.01
7:28:35 PM,8.94,-0.57,0.76,0.01,-0.03,0.01
7:28:35 PM,8.97,-0.63,0.74,-0.00,-0.02,0.01
7:28:35 PM,9.01,-0.61,0.76,0.03,0.01,0.01
7:28:36 PM,8.93,-0.63,0.76,0.02,-0.01,0.01
7:28:36 PM,8.93,-0.61,0.77,0.02,-0.02,0.01
7:28:36 PM,8.90,-0.61,0.74,0.01,-0.03,0.01
7:28:36 PM,8.93,-0.60,0.80,0.01,-0.02,0.01
7:28:36 PM,8.91,-0.62,0.82,0.01,-0.03,0.01
7:28:36 PM,8.97,-0.60,0.80,0.02,-0.01,0.01
7:28:36 PM,9.00,-0.62,0.75,0.01,-0.01,0.01
7:28:36 PM,8.97,-0.61,0.77,0.01,-0.02,0.01
7:28:36 PM,8.94,-0.62,0.76,0.01,-0.02,0.01
7:28:36 PM,8.97,-0.62,0.75,0.01,-0.01,0.01
7:28:37 PM,8.97,-0.60,0.71,0.02,0.01,0.01
7:28:37 PM,8.98,-0.67,0.82,0.04,0.02,0.01
7:28:37 PM,8.95,-0.61,0.77,0.03,0.02,0.01
7:28:37 PM,9.00,-0.61,0.70,0.02,0.01,0.01
7:28:37 PM,8.94,-0.61,0.74,0.01,-0.02,0.01
7:28:37 PM,8.95,-0.62,0.77,0.01,0.01,0.01
7:28:37 PM,8.95,-0.58,0.77,0.02,-0.01,0.01
7:28:37 PM,8.96,-0.63,0.74,0.01,-0.00,0.01
7:28:37 PM,9.02,-0.59,0.68,0.01,0.01,0.01
7:28:38 PM,9.00,-0.58,0.72,0.01,-0.02,0.01
7:28:38 PM,9.02,-0.64,0.70,0.01,-0.02,0.01
7:28:38 PM,9.00,-0.58,0.73,0.01,-0.01,0.01
7:28:38 PM,9.01,-0.59,0.66,0.01,-0.03,0.01
7:28:39 PM,8.87,-0.64,0.82,0.00,-0.03,0.01
7:28:39 PM,9.01,-0.61,0.71,0.00,-0.02,0.01
7:28:39 PM,9.00,-0.60,0.77,0.01,-0.02,0.01
7:28:39 PM,9.01,-0.63,0.66,0.01,-0.01,0.01
7:28:39 PM,9.04,-0.62,0.67,0.01,-0.02,0.01
7:28:39 PM,8.90,-0.60,0.78,-0.00,-0.04,0.01
7:28:39 PM,8.89,-0.62,0.79,-0.01,-0.04,0.01
7:28:39 PM,8.93,-0.58,0.78,0.02,-0.01,0.01
7:28:39 PM,8.96,-0.60,0.77,0.02,-0.02,0.01
7:28:39 PM,8.93,-0.57,0.81,0.02,-0.00,0.01
7:28:39 PM,8.98,-0.57,0.74,0.02,-0.00,0.01
7:28:39 PM,8.93,-0.59,0.71,0.01,-0.02,0.01
7:28:39 PM,8.96,-0.63,0.77,-0.00,-0.05,0.01
7:28:39 PM,8.93,-0.59,0.77,0.00,-0.04,0.01
7:28:40 PM,9.00,-0.68,0.75,0.02,-0.01,0.01
7:28:40 PM,9.04,-0.59,0.57,0.03,0.01,0.01
7:28:40 PM,8.91,-0.66,0.77,-0.00,-0.04,0.01
7:28:40 PM,8.94,-0.60,0.76,-0.01,-0.03,0.01
7:28:40 PM,8.96,-0.59,0.80,0.01,-0.02,0.01
7:28:40 PM,8.94,-0.60,0.79,0.01,-0.00,0.01
7:28:40 PM,9.04,-0.64,0.67,0.00,-0.04,0.01
7:28:40 PM,9.00,-0.63,0.68,0.01,-0.00,0.01
7:28:40 PM,8.96,-0.62,0.74,0.01,-0.02,0.01
7:28:40 PM,8.97,-0.60,0.77,0.01,-0.02,0.01
7:28:41 PM,8.94,-0.62,0.77,0.01,-0.00,0.01
7:28:41 PM,8.94,-0.62,0.81,0.01,-0.01,0.01
7:28:41 PM,8.93,-0.58,0.82,0.02,-0.01,0.01
7:28:41 PM,8.88,-0.60,0.83,0.01,-0.02,0.01
7:28:41 PM,8.93,-0.63,0.80,0.01,-0.00,0.01
7:28:41 PM,9.00,-0.60,0.80,0.00,-0.03,0.01
7:28:41 PM,8.93,-0.63,0.78,0.01,-0.02,0.01
7:28:41 PM,8.94,-0.61,0.78,0.01,-0.01,0.01
7:28:41 PM,8.92,-0.61,0.79,0.02,0.00,0.01
7:28:41 PM,8.98,-0.61,0.78,0.01,-0.01,0.01
7:28:42 PM,8.93,-0.59,0.78,0.01,-0.00,0.01
7:28:42 PM,8.96,-0.58,0.75,0.01,-0.02,0.01
7:28:42 PM,9.00,-0.60,0.75,0.02,-0.02,0.01
7:28:42 PM,8.99,-0.61,0.76,0.01,-0.02,0.01
7:28:42 PM,9.01,-0.60,0.82,0.01,-0.01,0.01
7:28:42 PM,9.01,-0.61,0.79,0.01,-0.03,0.01
7:28:42 PM,8.95,-0.63,0.84,0.01,-0.03,0.01
7:28:42 PM,8.93,-0.61,0.82,0.01,-0.01,0.01
7:28:42 PM,8.94,-0.59,0.84,-0.00,-0.03,0.01
7:28:42 PM,8.97,-0.61,0.78,0.01,-0.02,0.01
7:28:43 PM,8.91,-0.59,0.80,0.02,-0.02,0.01
7:28:43 PM,8.96,-0.61,0.85,0.02,-0.01,0.01
7:28:43 PM,8.90,-0.63,0.85,0.02,-0.00,0.01
7:28:43 PM,8.92,-0.60,0.83,0.03,0.02,0.01
7:28:43 PM,9.03,-0.66,0.88,0.03,-0.02,0.01
7:28:43 PM,9.22,-0.56,0.86,0.00,0.06,0.01
7:28:43 PM,8.94,-0.57,0.82,0.01,-0.03,0.01
7:28:43 PM,8.88,-0.58,0.85,0.01,-0.01,0.01
7:28:43 PM,8.95,-0.60,0.81,0.03,0.04,0.01
7:28:44 PM,8.98,-0.58,0.77,0.01,-0.01,0.01
7:28:44 PM,8.59,-0.56,1.08,0.04,0.09,0.01
7:28:44 PM,8.73,-0.55,1.10,0.03,0.04,0.01
7:28:44 PM,8.96,-0.55,0.86,0.02,0.02,0.01
7:28:44 PM,8.98,-0.56,0.79,0.01,-0.02,0.01
7:28:44 PM,8.94,-0.60,0.77,0.01,-0.03,0.01
7:28:44 PM,8.91,-0.60,0.80,0.00,-0.02,0.01
7:28:44 PM,8.93,-0.59,0.79,0.00,-0.04,0.01
7:28:44 PM,8.95,-0.62,0.79,0.01,-0.01,0.01
7:28:45 PM,8.95,-0.62,0.74,0.01,-0.01,0.01
7:28:45 PM,8.95,-0.60,0.72,0.01,-0.01,0.01
7:28:45 PM,8.99,-0.60,0.69,0.01,-0.04,0.01
7:28:45 PM,8.97,-0.59,0.71,0.01,-0.02,0.01
7:28:45 PM,8.97,-0.60,0.75,0.01,0.00,0.01
7:28:45 PM,9.10,-0.63,0.77,-0.01,-0.11,0.01
7:28:45 PM,9.01,-0.66,0.66,-0.01,-0.08,0.01
7:28:45 PM,8.94,-0.60,0.76,0.00,-0.04,0.01
7:28:45 PM,8.87,-0.62,0.80,0.01,-0.01,0.01
7:28:45 PM,9.05,-0.59,0.69,0.01,-0.03,0.01
7:28:46 PM,8.94,-0.64,0.77,0.01,-0.01,0.01
7:28:46 PM,9.04,-0.56,0.66,0.02,0.03,0.01
7:28:46 PM,9.09,-0.59,0.62,-0.00,-0.04,0.01
7:28:46 PM,8.97,-0.61,0.67,0.00,-0.04,0.01
7:28:46 PM,9.02,-0.61,0.72,-0.00,-0.03,0.01
7:28:46 PM,8.98,-0.59,0.70,-0.00,-0.05,0.01
7:28:46 PM,8.92,-0.61,0.82,0.01,0.00,0.01
7:28:46 PM,8.92,-0.58,0.66,0.00,-0.03,0.01
7:28:46 PM,8.73,-0.59,0.86,-0.02,-0.06,0.01
7:28:47 PM,8.86,-0.56,0.77,-0.01,-0.03,0.01
7:28:47 PM,8.91,-0.58,0.80,-0.01,-0.05,0.01
7:28:47 PM,8.93,-0.57,0.74,-0.00,-0.02,0.01
7:28:47 PM,8.93,-0.59,0.76,-0.00,-0.02,0.01
7:28:47 PM,8.95,-0.60,0.74,0.01,-0.02,0.01
7:28:47 PM,8.99,-0.62,0.74,0.01,-0.01,0.01
7:28:47 PM,8.96,-0.62,0.74,0.01,-0.00,0.01
7:28:47 PM,8.96,-0.60,0.70,0.00,-0.01,0.01
7:28:47 PM,8.96,-0.61,0.74,0.00,-0.02,0.01
7:28:47 PM,8.99,-0.59,0.69,0.01,-0.02,0.01
7:28:48 PM,9.00,-0.62,0.70,0.01,-0.01,0.01
7:28:48 PM,9.00,-0.59,0.68,0.01,-0.02,0.01
7:28:48 PM,8.97,-0.59,0.69,0.01,-0.03,0.01
7:28:48 PM,8.93,-0.59,0.76,0.01,-0.02,0.01
7:28:48 PM,8.98,-0.58,0.71,0.01,-0.02,0.01
7:28:48 PM,8.92,-0.58,0.74,0.02,-0.02,0.01
7:28:48 PM,8.91,-0.57,0.74,0.02,-0.01,0.01
7:28:48 PM,8.94,-0.58,0.74,0.01,-0.01,0.01
7:28:48 PM,8.93,-0.60,0.74,0.01,-0.01,0.01
