Timestamp,Accel X,Accel Y,Accel Z,Gyro X,Gyro Y,Gyro Z
7:50:20 PM,9.11,0.67,-2.21,-0.02,-0.04,0.01
7:50:20 PM,9.14,0.65,-2.23,0.00,0.00,0.01
7:50:20 PM,9.13,0.65,-2.24,0.05,-0.02,0.01
7:50:20 PM,9.10,0.57,-2.28,-0.04,-0.03,0.01
7:50:20 PM,9.17,0.62,-2.22,-0.04,-0.00,0.01
7:50:20 PM,9.11,0.61,-2.20,0.09,0.04,0.01
7:50:20 PM,9.11,0.61,-2.12,-0.05,-0.02,0.01
7:50:20 PM,9.18,0.58,-2.21,-0.01,-0.03,0.01
7:50:21 PM,9.09,0.60,-2.18,-0.03,-0.00,0.01
7:50:21 PM,9.11,0.56,-2.21,-0.04,-0.07,0.01
7:50:21 PM,9.13,0.55,-2.14,-0.04,-0.05,0.01
7:50:21 PM,9.14,0.51,-2.23,0.05,0.00,0.01
7:50:21 PM,9.12,0.51,-2.14,-0.04,-0.02,0.01
7:50:21 PM,9.10,0.48,-2.26,0.03,0.03,0.01
7:50:21 PM,9.10,0.45,-2.08,0.03,0.00,0.01
7:50:21 PM,9.17,0.42,-2.24,0.08,-0.01,0.01
7:50:21 PM,9.12,0.39,-2.22,0.08,0.04,0.01
7:50:22 PM,9.15,0.42,-2.10,0.08,0.03,0.01
7:50:22 PM,9.12,0.43,-2.14,-0.03,-0.02,0.01
7:50:22 PM,9.16,0.48,-2.09,0.05,0.01,0.01
7:50:22 PM,9.14,0.51,-2.03,0.04,-0.02,0.01
7:50:22 PM,9.12,0.50,-2.05,-0.01,-0.01,0.01
7:50:22 PM,9.25,0.61,-2.08,0.07,0.01,0.01
7:50:22 PM,9.13,0.54,-1.98,0.01,-0.02,0.01
7:50:22 PM,9.15,0.46,-2.00,-0.02,-0.01,0.01
7:50:22 PM,9.16,0.54,-2.05,0.04,-0.00,0.01
7:50:22 PM,9.13,0.51,-1.98,-0.02,-0.02,0.01
7:50:23 PM,9.15,0.49,-1.96,0.02,-0.03,0.01
7:50:23 PM,9.11,0.52,-1.92,0.05,0.03,0.01
7:50:23 PM,9.15,0.51,-1.94,-0.04,-0.05,0.01
7:50:23 PM,9.16,0.55,-1.95,0.04,-0.02,0.01
7:50:23 PM,9.18,0.57,-2.03,-0.00,-0.03,0.01
7:50:23 PM,9.22,0.54,-1.97,-0.01,-0.06,0.01
7:50:23 PM,9.17,0.52,-2.01,-0.10,-0.06,0.01
7:50:23 PM,9.15,0.59,-2.06,-0.02,-0.04,0.01
7:50:23 PM,9.20,0.62,-2.09,-0.03,-0.04,0.01
7:50:24 PM,9.21,0.38,-2.03,-0.02,-0.04,0.01
7:50:24 PM,9.17,0.54,-2.03,0.07,0.04,0.01
7:50:24 PM,9.15,0.51,-2.15,-0.01,-0.03,0.01
7:50:24 PM,9.18,0.47,-2.10,0.02,-0.01,0.01
7:50:24 PM,9.15,0.47,-2.04,0.11,0.00,0.01
7:50:24 PM,9.13,0.51,-2.04,0.05,-0.01,0.01
7:50:24 PM,9.16,0.52,-2.09,0.05,0.02,0.01
7:50:24 PM,9.17,0.46,-1.96,0.05,-0.00,0.01
7:50:24 PM,9.14,0.54,-2.03,-0.00,-0.01,0.01
7:50:24 PM,9.20,0.53,-1.93,0.05,0.01,0.01
7:50:25 PM,9.05,0.48,-1.91,0.01,0.01,0.01
7:50:25 PM,9.15,0.57,-1.87,0.01,-0.02,0.01
7:50:25 PM,9.19,0.52,-1.83,0.02,0.12,0.01
7:50:25 PM,9.19,0.66,-1.76,0.00,-0.02,0.01
7:50:25 PM,9.10,0.61,-1.75,-0.03,-0.03,0.01
7:50:25 PM,9.22,0.68,-1.83,-0.06,-0.04,0.01
7:50:25 PM,9.18,0.63,-1.81,0.03,-0.01,0.01
7:50:25 PM,9.16,0.69,-1.77,-0.07,0.01,0.01
7:50:25 PM,9.17,0.69,-1.78,0.04,-0.03,0.01
7:50:26 PM,9.16,0.69,-1.79,-0.02,0.01,0.01
7:50:26 PM,9.15,0.73,-1.81,0.04,-0.01,0.01
7:50:26 PM,9.19,0.75,-1.80,-0.01,-0.02,0.01
7:50:26 PM,9.18,0.72,-1.80,0.02,-0.03,0.01
7:50:26 PM,9.22,0.71,-1.84,-0.05,-0.01,0.01
7:50:26 PM,9.18,0.66,-1.77,-0.04,0.03,0.01
7:50:26 PM,9.16,0.65,-1.74,-0.08,-0.06,0.01
7:50:26 PM,9.13,0.65,-1.73,0.03,0.01,0.01
7:50:26 PM,9.17,0.59,-1.80,-0.03,-0.05,0.01
7:50:26 PM,9.11,0.57,-1.77,0.07,0.01,0.01
7:50:27 PM,9.20,0.60,-1.88,0.04,-0.01,0.01
7:50:27 PM,9.18,0.59,-1.74,0.06,0.03,0.01
7:50:27 PM,9.17,0.62,-1.74,0.02,0.01,0.01
7:50:27 PM,9.20,0.65,-1.69,0.05,0.03,0.01
7:50:27 PM,9.20,0.63,-1.65,-0.01,-0.04,0.01
7:50:27 PM,9.16,0.61,-1.63,0.01,-0.01,0.01
7:50:27 PM,9.19,0.68,-1.58,0.05,0.01,0.01
7:50:27 PM,9.09,0.64,-1.65,0.03,0.01,0.01
7:50:27 PM,9.18,0.66,-1.64,0.01,-0.03,0.01
7:50:28 PM,9.14,0.64,-1.58,-0.03,-0.02,0.01
7:50:28 PM,9.19,0.67,-1.62,-0.01,-0.07,0.01
7:50:28 PM,9.16,0.60,-1.58,0.01,-0.00,0.01
7:50:28 PM,9.25,0.54,-1.54,0.12,0.06,0.01
7:50:28 PM,9.15,0.63,-1.51,0.04,-0.01,0.01
7:50:28 PM,9.17,0.59,-1.60,0.03,-0.02,0.01
7:50:28 PM,9.15,0.63,-1.66,0.01,-0.01,0.01
7:50:28 PM,9.19,0.65,-1.55,0.02,-0.04,0.01
7:50:28 PM,9.21,0.59,-1.60,-0.00,-0.06,0.01
7:50:28 PM,9.16,0.54,-1.68,0.01,-0.04,0.01
7:50:29 PM,9.28,0.49,-1.62,-0.01,0.01,0.01
7:50:29 PM,9.13,0.34,-1.47,0.01,0.05,0.01
7:50:29 PM,9.30,0.39,-1.53,-0.01,-0.08,0.01
7:50:29 PM,9.17,0.37,-1.54,0.01,-0.01,0.01
7:50:29 PM,9.20,0.33,-1.53,0.03,-0.02,0.01
7:50:29 PM,9.24,0.37,-1.56,-0.02,-0.04,0.01
7:50:29 PM,9.17,0.38,-1.57,0.02,-0.01,0.01
7:50:29 PM,9.11,0.44,-1.49,0.05,-0.04,0.01
7:50:29 PM,9.13,0.47,-1.53,0.02,0.00,0.01
7:50:30 PM,9.17,0.38,-1.60,0.06,0.04,0.01
7:50:30 PM,9.19,0.49,-1.58,0.03,-0.01,0.01
7:50:30 PM,9.11,0.60,-1.64,-0.05,-0.08,0.01
7:50:30 PM,9.13,0.55,-1.59,0.00,-0.05,0.01
7:50:30 PM,9.17,0.57,-1.68,0.01,-0.01,0.01
7:50:30 PM,9.12,0.56,-1.57,0.01,-0.03,0.01
7:50:30 PM,9.24,0.56,-1.60,0.01,-0.00,0.01
7:50:30 PM,9.15,0.54,-1.63,-0.01,-0.02,0.01
7:50:30 PM,9.18,0.57,-1.62,-0.02,-0.01,0.01
7:50:31 PM,9.21,0.60,-1.71,-0.03,-0.02,0.01
7:50:31 PM,9.16,0.60,-1.59,0.03,-0.00,0.01
7:50:31 PM,9.20,0.56,-1.61,0.05,0.03,0.01
7:50:31 PM,9.25,0.55,-1.59,0.00,-0.02,0.01
7:50:31 PM,9.12,0.59,-1.61,0.01,-0.05,0.01
7:50:31 PM,9.22,0.53,-1.65,-0.01,-0.04,0.01
7:50:31 PM,9.22,0.63,-1.57,-0.03,-0.04,0.01
7:50:31 PM,9.17,0.57,-1.61,0.01,-0.05,0.01
7:50:31 PM,9.13,0.52,-1.73,-0.09,-0.03,0.01
7:50:31 PM,9.23,0.52,-1.69,0.02,0.00,0.01
7:50:32 PM,9.15,0.47,-1.67,-0.08,-0.05,0.01
7:50:32 PM,9.18,0.47,-1.78,0.01,-0.03,0.01
7:50:32 PM,9.09,0.44,-1.56,0.03,0.02,0.01
7:50:32 PM,9.16,0.46,-1.68,-0.03,-0.00,0.01
7:50:32 PM,9.19,0.38,-1.69,0.02,-0.01,0.01
7:50:32 PM,9.21,0.52,-1.74,-0.00,-0.01,0.01
7:50:32 PM,9.25,0.45,-1.59,0.05,0.07,0.01
7:50:32 PM,9.19,0.45,-1.69,-0.01,-0.03,0.01
7:50:32 PM,9.29,0.43,-1.55,0.02,0.04,0.01
7:50:33 PM,9.17,0.41,-1.52,0.01,0.04,0.01
7:50:33 PM,9.21,0.38,-1.56,0.01,-0.00,0.01
7:50:33 PM,9.09,0.37,-1.30,-0.04,0.01,0.01
7:50:33 PM,9.20,0.37,-1.58,0.06,-0.01,0.01
7:50:33 PM,9.22,0.36,-1.60,0.13,0.09,0.01
7:50:33 PM,9.19,0.39,-1.53,-0.01,-0.08,0.01
7:50:33 PM,9.16,0.44,-1.40,-0.02,-0.06,0.01
7:50:33 PM,9.27,0.41,-1.64,0.02,-0.03,0.01
7:50:33 PM,9.19,0.42,-1.50,-0.06,-0.05,0.01
7:50:33 PM,9.18,0.45,-1.58,0.01,-0.02,0.01
7:50:34 PM,9.17,0.46,-1.60,-0.00,-0.02,0.01
7:50:34 PM,9.25,0.51,-1.59,0.08,0.02,0.01
7:50:34 PM,9.17,0.45,-1.57,-0.08,-0.05,0.01
7:50:34 PM,9.19,0.50,-1.55,0.06,0.01,0.01
7:50:34 PM,9.22,0.44,-1.58,-0.08,-0.05,0.01
7:50:34 PM,9.17,0.42,-1.66,0.00,-0.04,0.01
7:50:34 PM,9.17,0.41,-1.59,0.02,-0.05,0.01
7:50:34 PM,9.16,0.34,-1.58,-0.02,-0.02,0.01
7:50:34 PM,9.16,0.29,-1.66,-0.00,-0.04,0.01
7:50:35 PM,9.20,0.34,-1.70,0.01,-0.02,0.01
7:50:35 PM,9.11,0.31,-1.58,0.04,-0.00,0.01
7:50:35 PM,9.18,0.32,-1.61,0.01,-0.03,0.01
7:50:35 PM,9.17,0.31,-1.60,0.03,0.03,0.01
7:50:35 PM,9.20,0.37,-1.59,0.04,-0.00,0.01
7:50:35 PM,9.17,0.51,-1.80,0.07,0.09,0.01
7:50:35 PM,9.36,0.47,-1.51,0.02,-0.02,0.01
7:50:35 PM,9.03,0.38,-1.46,-0.06,-0.12,0.01
7:50:35 PM,9.16,0.40,-1.54,-0.02,-0.00,0.01
7:50:35 PM,9.15,0.42,-1.57,0.04,-0.01,0.01
7:50:36 PM,9.21,0.45,-1.60,-0.07,-0.03,0.01
7:50:36 PM,9.23,0.42,-1.62,0.03,-0.01,0.01
7:50:36 PM,9.17,0.42,-1.57,-0.03,-0.03,0.01
7:50:36 PM,9.18,0.41,-1.62,0.02,-0.03,0.01
7:50:36 PM,9.21,0.39,-1.62,0.02,-0.01,0.01
7:50:36 PM,9.22,0.39,-1.55,0.04,-0.02,0.01
7:50:36 PM,9.22,0.36,-1.58,-0.01,-0.01,0.01
7:50:36 PM,9.17,0.36,-1.58,-0.02,-0.03,0.01
7:50:36 PM,9.17,0.37,-1.60,0.04,-0.00,0.01
7:50:37 PM,9.22,0.33,-1.56,-0.01,-0.07,0.01
7:50:37 PM,9.15,0.25,-1.67,0.02,0.01,0.01
7:50:37 PM,9.15,0.30,-1.58,0.01,-0.01,0.01
7:50:37 PM,9.17,0.29,-1.62,-0.01,-0.05,0.01
7:50:37 PM,9.19,0.27,-1.70,0.04,0.04,0.01
7:50:37 PM,9.21,0.27,-1.58,0.01,-0.06,0.01
7:50:37 PM,9.19,0.26,-1.69,-0.01,-0.01,0.01
7:50:37 PM,9.13,0.31,-1.54,0.01,0.01,0.01
7:50:37 PM,9.16,0.32,-1.54,-0.03,-0.02,0.01
7:50:37 PM,9.15,0.32,-1.55,0.04,-0.01,0.01
7:50:38 PM,9.22,0.37,-1.59,0.03,-0.00,0.01
7:50:38 PM,9.18,0.35,-1.60,-0.02,-0.03,0.01
7:50:38 PM,9.20,0.33,-1.62,0.02,-0.02,0.01
7:50:38 PM,9.15,0.32,-1.56,0.04,-0.02,0.01
7:50:38 PM,9.27,0.34,-1.51,0.03,0.04,0.01
7:50:38 PM,9.17,0.35,-1.56,-0.03,-0.02,0.01
7:50:38 PM,9.11,0.34,-1.52,-0.00,-0.01,0.01
7:50:38 PM,9.15,0.35,-1.46,0.04,0.01,0.01
7:50:38 PM,9.13,0.36,-1.43,0.05,0.01,0.01
7:50:39 PM,9.13,0.30,-1.45,-0.05,-0.02,0.01
7:50:39 PM,9.22,0.30,-1.51,0.03,-0.01,0.01
7:50:39 PM,9.21,0.25,-1.49,0.05,-0.02,0.01
7:50:39 PM,9.18,0.30,-1.45,-0.02,-0.02,0.01
7:50:39 PM,9.22,0.33,-1.37,0.04,0.03,0.01
7:50:39 PM,9.21,0.25,-1.33,-0.01,0.08,0.01
7:50:39 PM,9.21,0.19,-1.49,0.05,-0.04,0.01
7:50:39 PM,9.24,0.19,-1.43,0.04,0.01,0.01
7:50:39 PM,9.13,0.15,-1.44,-0.04,-0.05,0.01
7:50:39 PM,9.23,0.22,-1.40,0.06,0.01,0.01
7:50:40 PM,9.14,0.16,-1.33,-0.00,-0.02,0.01
7:50:40 PM,9.24,0.22,-1.35,0.02,0.01,0.01
7:50:40 PM,9.13,0.19,-1.35,-0.02,-0.03,0.01
7:50:40 PM,9.21,0.24,-1.39,0.05,0.02,0.01
7:50:40 PM,9.18,0.21,-1.37,-0.06,-0.04,0.01
7:50:40 PM,9.13,0.24,-1.36,0.01,0.06,0.01
7:50:40 PM,9.22,0.31,-1.25,0.06,-0.03,0.01
7:50:40 PM,9.20,0.26,-1.31,0.02,-0.01,0.01
7:50:40 PM,9.18,0.31,-1.20,0.00,-0.01,0.01
7:50:41 PM,9.13,0.29,-1.21,0.02,-0.02,0.01
7:50:41 PM,9.11,0.27,-1.22,-0.10,-0.04,0.01
7:50:41 PM,9.22,0.30,-1.30,-0.01,0.02,0.01
7:50:41 PM,9.20,0.31,-1.24,0.18,-0.02,0.01
7:50:41 PM,9.19,0.35,-1.07,-0.05,-0.02,0.01
7:50:41 PM,9.17,0.31,-1.33,-0.06,-0.02,0.01
7:50:41 PM,9.10,0.36,-1.22,0.07,-0.05,0.01
7:50:41 PM,9.14,0.32,-1.34,-0.01,-0.03,0.01
7:50:41 PM,9.21,0.39,-1.20,0.13,0.03,0.01
7:50:41 PM,9.23,0.33,-1.25,-0.07,-0.08,0.01
7:50:42 PM,9.23,0.31,-1.21,-0.03,-0.04,0.01
7:50:42 PM,9.16,0.22,-1.28,0.00,0.00,0.01
7:50:42 PM,9.19,0.27,-1.19,0.01,-0.01,0.01
7:50:42 PM,9.20,0.27,-1.27,0.02,-0.03,0.01
7:50:42 PM,9.17,0.32,-1.28,0.06,0.02,0.01
7:50:42 PM,9.21,0.33,-1.24,-0.01,-0.01,0.01
7:50:42 PM,9.21,0.33,-1.31,0.01,-0.02,0.01
7:50:42 PM,9.20,0.36,-1.18,0.09,0.00,0.01
7:50:43 PM,9.18,0.31,-1.19,-0.04,-0.03,0.01
7:50:43 PM,9.18,0.34,-1.30,-0.05,-0.02,0.01
7:50:43 PM,9.20,0.37,-1.19,0.00,-0.01,0.01
7:50:45 PM,9.20,0.32,-1.20,-0.03,-0.04,0.01
7:50:45 PM,9.25,0.29,-1.22,-0.02,-0.03,0.01
7:50:45 PM,9.17,0.30,-1.16,0.02,0.01,0.01
7:50:45 PM,9.19,0.29,-1.21,-0.02,-0.01,0.01
7:50:45 PM,9.16,0.35,-1.23,-0.03,0.01,0.01
7:50:45 PM,9.23,0.43,-1.20,0.02,-0.01,0.01
7:50:45 PM,9.21,0.33,-1.17,-0.00,-0.05,0.01
7:50:45 PM,9.21,0.35,-1.26,0.12,-0.03,0.01
7:50:45 PM,9.21,0.31,-1.15,0.07,-0.05,0.01
7:50:45 PM,9.21,0.33,-1.24,0.05,-0.00,0.01
7:50:45 PM,9.20,0.34,-1.21,0.01,-0.01,0.01
7:50:45 PM,9.21,0.34,-1.20,-0.10,-0.03,0.01
7:50:45 PM,9.19,0.27,-1.22,-0.00,-0.03,0.01
7:50:45 PM,9.19,0.23,-1.26,-0.03,-0.02,0.01
7:50:46 PM,9.23,0.21,-1.25,-0.04,-0.01,0.01
7:50:46 PM,9.13,0.21,-1.22,0.07,-0.01,0.01
7:50:46 PM,9.21,0.22,-1.13,-0.00,-0.02,0.01
7:50:46 PM,9.21,0.25,-1.23,-0.05,0.00,0.01
7:50:46 PM,9.17,0.28,-1.22,0.02,-0.01,0.01
7:50:46 PM,9.18,0.32,-1.14,0.02,-0.01,0.01
7:50:46 PM,9.25,0.32,-1.28,0.04,0.03,0.01
7:50:46 PM,9.22,0.31,-1.12,-0.06,-0.05,0.01
7:50:46 PM,9.20,0.29,-1.23,-0.04,-0.01,0.01
7:50:46 PM,9.22,0.34,-1.20,0.06,-0.01,0.01
7:50:47 PM,9.13,0.32,-1.15,0.09,-0.00,0.01
7:50:47 PM,9.27,0.34,-1.22,-0.02,-0.03,0.01
7:50:47 PM,9.17,0.31,-1.23,0.03,0.00,0.01
7:50:47 PM,9.22,0.36,-1.16,0.08,-0.01,0.01
7:50:47 PM,9.14,0.30,-1.21,-0.04,-0.02,0.01
7:50:47 PM,9.20,0.33,-1.20,0.07,-0.01,0.01
7:50:47 PM,9.17,0.32,-1.21,-0.07,-0.01,0.01
7:50:47 PM,9.21,0.33,-1.20,-0.02,-0.03,0.01
7:50:47 PM,9.17,0.33,-1.13,0.03,-0.00,0.01
7:50:48 PM,9.19,0.35,-1.15,-0.00,-0.02,0.01
7:50:48 PM,9.17,0.33,-1.16,0.03,-0.00,0.01
7:50:48 PM,9.17,0.36,-1.10,-0.00,-0.01,0.01
7:50:48 PM,9.16,0.33,-1.16,-0.00,-0.05,0.01
7:50:48 PM,9.21,0.31,-1.14,-0.02,-0.02,0.01
7:50:48 PM,9.22,0.31,-1.18,0.03,-0.01,0.01
7:50:48 PM,9.21,0.29,-1.17,-0.00,-0.02,0.01
7:50:48 PM,9.19,0.30,-1.18,0.03,-0.01,0.01
7:50:48 PM,9.20,0.25,-1.15,0.04,-0.00,0.01
7:50:48 PM,9.18,0.28,-1.13,0.01,0.00,0.01
7:50:49 PM,9.17,0.32,-1.14,0.03,0.00,0.01
7:50:49 PM,9.15,0.35,-1.13,-0.01,-0.01,0.01
7:50:49 PM,9.17,0.40,-1.10,0.04,-0.02,0.01
7:50:49 PM,9.19,0.45,-1.10,-0.03,-0.03,0.01
7:50:49 PM,9.16,0.39,-1.12,-0.01,-0.03,0.01
7:50:49 PM,9.21,0.39,-1.10,0.05,-0.02,0.01
7:50:49 PM,9.23,0.41,-1.11,-0.03,-0.03,0.01
7:50:49 PM,9.20,0.39,-1.12,0.01,-0.00,0.01
7:50:49 PM,9.19,0.40,-1.10,0.09,0.02,0.01
7:50:50 PM,9.22,0.40,-1.08,-0.02,-0.03,0.01
7:50:50 PM,9.19,0.38,-1.08,0.01,-0.02,0.01
7:50:50 PM,9.20,0.41,-1.06,0.01,-0.01,0.01
7:50:50 PM,9.20,0.40,-1.12,-0.04,-0.01,0.01
7:50:50 PM,9.20,0.43,-1.19,-0.03,-0.03,0.01
7:50:50 PM,9.20,0.37,-1.08,0.02,-0.01,0.01
7:50:50 PM,9.21,0.41,-1.12,-0.06,-0.04,0.01
7:50:50 PM,9.23,0.43,-1.12,0.04,-0.01,0.01
7:50:50 PM,9.15,0.39,-1.11,0.02,-0.01,0.01
7:50:51 PM,9.22,0.37,-1.19,0.03,-0.01,0.01
7:50:51 PM,9.20,0.38,-1.07,0.02,-0.02,0.01
7:50:51 PM,9.21,0.38,-1.14,0.02,-0.02,0.01
7:50:51 PM,9.14,0.31,-1.07,0.02,-0.02,0.01
7:50:51 PM,9.20,0.34,-1.07,-0.02,-0.01,0.01
7:50:51 PM,9.21,0.36,-1.07,0.08,0.01,0.01
7:50:51 PM,9.19,0.35,-1.09,-0.01,0.02,0.01
7:50:51 PM,9.15,0.45,-1.07,0.04,0.00,0.01
7:50:51 PM,9.16,0.41,-1.04,-0.00,-0.01,0.01
7:50:51 PM,9.14,0.41,-1.00,0.05,0.02,0.01
7:50:52 PM,9.20,0.48,-1.05,-0.02,-0.02,0.01
7:50:52 PM,9.22,0.47,-1.03,-0.01,-0.02,0.01
7:50:52 PM,9.16,0.40,-0.98,-0.02,-0.01,0.01
7:50:52 PM,9.15,0.48,-1.04,0.02,-0.01,0.01
7:50:52 PM,9.19,0.47,-1.00,-0.02,-0.02,0.01
7:50:52 PM,9.17,0.49,-1.04,0.05,-0.00,0.01
7:50:52 PM,9.15,0.45,-1.01,-0.00,-0.01,0.01
7:50:52 PM,9.23,0.51,-0.99,0.04,-0.02,0.01
7:50:52 PM,9.18,0.49,-1.02,0.01,-0.02,0.01
7:50:53 PM,9.22,0.49,-1.00,-0.02,-0.04,0.01
7:50:53 PM,9.18,0.43,-1.04,-0.00,-0.04,0.01
7:50:53 PM,9.22,0.44,-1.08,-0.00,-0.02,0.01
7:50:53 PM,9.16,0.45,-1.11,0.03,-0.04,0.01
7:50:53 PM,9.26,0.38,-1.10,-0.04,-0.03,0.01
7:50:53 PM,9.22,0.44,-1.07,0.05,-0.01,0.01
7:50:53 PM,9.17,0.39,-1.09,-0.04,-0.00,0.01
7:50:53 PM,9.18,0.45,-1.07,0.00,0.00,0.01
7:50:53 PM,9.19,0.47,-1.03,-0.02,-0.03,0.01
7:50:53 PM,9.22,0.50,-1.06,0.06,-0.01,0.01
7:50:54 PM,9.21,0.49,-1.08,0.01,-0.01,0.01
7:50:54 PM,9.20,0.45,-1.08,0.04,-0.01,0.01
7:50:54 PM,9.17,0.50,-0.98,0.02,-0.03,0.01
7:50:54 PM,9.16,0.47,-1.08,0.01,-0.02,0.01
7:50:54 PM,9.25,0.51,-1.04,0.03,-0.02,0.01
7:50:54 PM,9.17,0.45,-1.08,-0.03,0.01,0.01
7:50:54 PM,9.18,0.49,-1.10,0.05,-0.03,0.01
7:50:54 PM,9.24,0.50,-0.96,0.06,-0.01,0.01
7:50:54 PM,9.18,0.50,-0.99,0.04,-0.03,0.01
7:50:55 PM,9.19,0.45,-1.02,0.04,-0.01,0.01
7:50:55 PM,9.19,0.42,-1.00,0.01,-0.01,0.01
7:50:55 PM,9.17,0.42,-1.04,0.00,-0.02,0.01
7:50:55 PM,9.22,0.44,-0.99,-0.01,-0.01,0.01
7:50:55 PM,9.15,0.42,-1.05,-0.03,-0.03,0.01
7:50:55 PM,9.22,0.41,-1.02,-0.02,-0.02,0.01
7:50:55 PM,9.18,0.41,-1.04,0.03,-0.01,0.01
7:50:55 PM,9.26,0.44,-0.97,-0.07,-0.03,0.01
7:50:55 PM,9.19,0.45,-1.01,0.04,-0.02,0.01
7:50:55 PM,9.24,0.47,-1.03,-0.05,-0.04,0.01
7:50:56 PM,9.18,0.43,-1.04,0.06,-0.02,0.01
7:50:56 PM,9.19,0.38,-1.03,-0.03,-0.02,0.01
7:50:56 PM,9.19,0.40,-1.07,0.03,-0.01,0.01
7:50:56 PM,9.16,0.40,-0.98,0.03,-0.00,0.01
7:50:56 PM,9.20,0.40,-1.05,0.07,0.00,0.01
7:50:56 PM,9.19,0.45,-0.98,0.04,-0.00,0.01
7:50:56 PM,9.18,0.46,-1.03,0.02,-0.01,0.01
7:50:56 PM,9.21,0.46,-0.96,0.01,-0.01,0.01
7:50:56 PM,9.20,0.50,-0.96,0.01,-0.02,0.01
7:50:57 PM,9.20,0.51,-1.00,0.02,-0.00,0.01
7:50:57 PM,9.20,0.51,-1.02,-0.00,-0.01,0.01
7:50:57 PM,9.20,0.51,-1.01,0.03,-0.02,0.01
7:50:57 PM,9.20,0.52,-1.00,-0.00,-0.03,0.01
7:50:57 PM,9.17,0.50,-1.01,0.02,-0.02,0.01
7:50:57 PM,9.19,0.50,-1.01,0.02,-0.00,0.01
7:50:57 PM,9.21,0.51,-0.98,0.03,-0.02,0.01
7:50:57 PM,9.25,0.48,-1.01,-0.05,-0.05,0.01
7:50:57 PM,9.22,0.48,-1.08,-0.03,-0.03,0.01
7:50:57 PM,9.17,0.44,-1.04,0.02,-0.01,0.01
7:50:58 PM,9.14,0.50,-1.02,0.05,-0.02,0.01
7:50:58 PM,9.18,0.48,-1.07,0.03,-0.02,0.01
7:50:58 PM,9.24,0.47,-1.04,-0.00,-0.03,0.01
7:50:58 PM,9.19,0.46,-1.05,-0.10,-0.06,0.01
7:50:58 PM,9.16,0.45,-1.12,-0.01,-0.04,0.01
7:50:58 PM,9.19,0.41,-1.08,0.03,-0.01,0.01
7:50:58 PM,9.21,0.37,-1.12,-0.04,-0.05,0.01
7:50:58 PM,9.13,0.35,-1.18,0.01,-0.04,0.01
7:50:58 PM,9.22,0.39,-1.17,0.09,0.01,0.01
7:50:59 PM,9.21,0.37,-1.11,0.08,-0.01,0.01
7:50:59 PM,9.17,0.35,-1.19,0.06,0.01,0.01
7:50:59 PM,9.17,0.39,-1.09,0.03,-0.02,0.01
7:50:59 PM,9.19,0.39,-1.17,-0.01,-0.03,0.01
7:50:59 PM,9.20,0.40,-1.20,-0.00,-0.01,0.01
7:50:59 PM,9.19,0.45,-1.19,-0.03,-0.01,0.01
7:50:59 PM,9.22,0.44,-1.16,-0.02,-0.04,0.01
7:50:59 PM,9.16,0.37,-1.17,0.02,-0.02,0.01
7:50:59 PM,9.19,0.39,-1.14,-0.01,-0.01,0.01
7:50:59 PM,9.23,0.41,-1.18,0.01,-0.01,0.01
7:51:00 PM,9.20,0.42,-1.16,0.01,0.01,0.01
7:51:00 PM,9.19,0.42,-1.19,0.01,-0.02,0.01
7:51:00 PM,9.21,0.47,-1.11,-0.03,-0.01,0.01
7:51:00 PM,9.18,0.47,-1.15,0.01,-0.03,0.01
7:51:00 PM,9.17,0.47,-1.17,-0.01,-0.03,0.01
7:51:00 PM,9.21,0.48,-1.15,-0.02,-0.02,0.01
7:51:00 PM,9.20,0.45,-1.15,-0.03,-0.03,0.01
7:51:00 PM,9.19,0.45,-1.19,0.06,-0.02,0.01
7:51:00 PM,9.18,0.48,-1.12,0.02,-0.01,0.01
7:51:01 PM,9.22,0.50,-1.18,0.01,-0.01,0.01
7:51:01 PM,9.17,0.49,-1.19,0.01,-0.01,0.01
7:51:01 PM,9.18,0.52,-1.11,0.03,-0.00,0.01
7:51:01 PM,9.16,0.53,-1.11,0.01,-0.03,0.01
7:51:01 PM,9.18,0.47,-1.13,-0.07,-0.04,0.01
7:51:01 PM,9.14,0.49,-1.19,0.02,-0.02,0.01
7:51:01 PM,9.19,0.43,-1.13,0.02,-0.00,0.01
7:51:01 PM,9.22,0.44,-1.09,-0.02,-0.03,0.01
7:51:01 PM,9.22,0.50,-1.19,-0.01,-0.02,0.01
7:51:01 PM,9.19,0.42,-1.18,0.03,-0.03,0.01
7:51:02 PM,9.18,0.42,-1.12,0.03,-0.00,0.01
7:51:02 PM,9.21,0.45,-1.08,0.03,-0.02,0.01
7:51:02 PM,9.20,0.45,-1.15,0.05,0.00,0.01
7:51:02 PM,9.19,0.46,-1.11,0.01,-0.01,0.01
7:51:02 PM,9.17,0.47,-1.16,0.02,-0.03,0.01
7:51:02 PM,9.19,0.50,-1.11,-0.00,-0.02,0.01
7:51:02 PM,9.17,0.53,-1.13,0.02,-0.00,0.01
7:51:02 PM,9.14,0.51,-1.14,0.01,-0.01,0.01
7:51:02 PM,9.17,0.50,-1.10,0.01,-0.01,0.01
7:51:03 PM,9.20,0.50,-1.11,-0.01,-0.02,0.01
7:51:03 PM,9.20,0.51,-1.08,-0.02,-0.02,0.01
7:51:03 PM,9.18,0.51,-1.13,-0.00,-0.02,0.01
7:51:03 PM,9.21,0.51,-1.12,0.01,-0.02,0.01
7:51:03 PM,9.20,0.45,-1.10,0.05,-0.00,0.01
7:51:03 PM,9.22,0.51,-1.09,-0.01,-0.02,0.01
7:51:03 PM,9.18,0.49,-1.10,0.02,-0.01,0.01
7:51:03 PM,9.18,0.47,-1.11,0.01,-0.01,0.01
7:51:03 PM,9.16,0.48,-1.08,0.00,-0.02,0.01
7:51:04 PM,9.23,0.51,-1.09,0.01,-0.02,0.01
7:51:04 PM,9.20,0.51,-1.09,-0.00,-0.02,0.01
7:51:04 PM,9.17,0.48,-1.05,-0.00,-0.03,0.01
7:51:04 PM,9.22,0.47,-1.14,-0.02,-0.04,0.01
7:51:04 PM,9.20,0.49,-1.11,-0.02,-0.01,0.01
7:51:04 PM,9.18,0.42,-1.11,0.01,-0.01,0.01
7:51:04 PM,9.19,0.44,-1.07,0.05,0.00,0.01
7:51:04 PM,9.20,0.42,-1.07,0.02,-0.01,0.01
7:51:04 PM,9.20,0.49,-1.09,0.05,-0.00,0.01
7:51:04 PM,9.17,0.44,-1.14,-0.02,-0.03,0.01
7:51:05 PM,9.20,0.47,-1.08,0.00,-0.01,0.01
7:51:05 PM,9.23,0.48,-1.02,0.01,-0.02,0.01
7:51:05 PM,9.18,0.49,-1.06,0.01,-0.01,0.01
7:51:05 PM,9.18,0.52,-1.01,-0.01,-0.02,0.01
7:51:05 PM,9.19,0.51,-1.14,0.01,-0.02,0.01
7:51:05 PM,9.12,0.53,-1.10,-0.00,-0.01,0.01
7:51:05 PM,9.15,0.51,-1.07,0.03,0.00,0.01
7:51:05 PM,9.13,0.51,-1.07,-0.00,-0.02,0.01
7:51:05 PM,9.15,0.55,-1.08,0.03,-0.02,0.01
7:51:06 PM,9.15,0.53,-1.07,-0.02,-0.02,0.01
7:51:06 PM,9.19,0.44,-1.03,0.01,-0.02,0.01
7:51:06 PM,9.21,0.50,-1.01,-0.02,-0.02,0.01
7:51:06 PM,9.21,0.53,-1.07,0.01,-0.03,0.01
7:51:06 PM,9.19,0.55,-1.10,-0.02,-0.02,0.01
7:51:06 PM,9.20,0.52,-1.13,0.01,-0.02,0.01
7:51:06 PM,9.18,0.46,-1.01,0.02,-0.01,0.01
7:51:06 PM,9.15,0.49,-1.04,0.04,-0.01,0.01
7:51:06 PM,9.18,0.51,-1.16,-0.00,-0.02,0.01
7:51:06 PM,9.22,0.55,-1.13,-0.00,-0.02,0.01
7:51:07 PM,9.16,0.51,-1.04,0.02,-0.01,0.01
7:51:07 PM,9.14,0.53,-1.07,-0.02,-0.01,0.01
7:51:07 PM,9.18,0.54,-1.14,0.01,-0.03,0.01
7:51:07 PM,9.21,0.50,-1.07,-0.02,-0.03,0.01
7:51:07 PM,9.18,0.53,-1.12,0.01,-0.02,0.01
7:51:07 PM,9.21,0.48,-1.12,-0.02,-0.03,0.01
7:51:07 PM,9.21,0.49,-1.10,0.04,-0.02,0.01
7:51:07 PM,9.20,0.45,-1.05,0.01,0.00,0.01
7:51:07 PM,9.21,0.43,-1.07,0.02,-0.03,0.01
7:51:08 PM,9.17,0.46,-1.09,0.02,-0.00,0.01
7:51:08 PM,9.14,0.46,-1.14,0.01,0.00,0.01
7:51:08 PM,9.16,0.47,-1.11,0.03,-0.01,0.01
7:51:08 PM,9.20,0.49,-1.11,0.04,-0.01,0.01
7:51:08 PM,9.20,0.46,-1.08,0.01,-0.01,0.01
7:51:08 PM,9.17,0.48,-1.03,0.01,0.00,0.01
7:51:08 PM,9.22,0.48,-1.06,-0.00,-0.02,0.01
7:51:08 PM,9.17,0.50,-1.07,-0.01,-0.01,0.01
7:51:08 PM,9.18,0.51,-1.10,-0.01,-0.02,0.01
7:51:08 PM,9.17,0.50,-1.15,0.03,-0.02,0.01
7:51:09 PM,9.18,0.47,-1.12,0.03,-0.02,0.01
7:51:09 PM,9.20,0.51,-1.11,-0.01,-0.02,0.01
7:51:09 PM,9.19,0.45,-1.11,0.02,-0.02,0.01
7:51:09 PM,9.19,0.47,-1.07,-0.01,-0.03,0.01
7:51:09 PM,9.18,0.47,-1.16,0.04,-0.03,0.01
7:51:09 PM,9.21,0.47,-1.10,-0.00,-0.02,0.01
7:51:09 PM,9.18,0.46,-1.05,0.02,-0.01,0.01
7:51:09 PM,9.19,0.46,-1.12,-0.01,-0.02,0.01
7:51:09 PM,9.21,0.48,-1.06,0.01,-0.02,0.01
7:51:10 PM,9.20,0.45,-1.06,0.02,-0.02,0.01
7:51:10 PM,9.18,0.41,-1.16,-0.03,-0.05,0.01
7:51:10 PM,9.18,0.44,-1.16,0.00,-0.03,0.01
7:51:10 PM,9.18,0.39,-1.08,0.03,-0.01,0.01
7:51:10 PM,9.18,0.41,-1.12,0.02,-0.01,0.01
7:51:10 PM,9.18,0.40,-1.08,0.00,-0.02,0.01
7:51:10 PM,9.20,0.38,-1.17,0.02,-0.01,0.01
7:51:10 PM,9.19,0.44,-1.23,0.00,-0.01,0.01
7:51:10 PM,9.17,0.41,-1.18,0.03,-0.00,0.01
7:51:10 PM,9.21,0.42,-1.10,0.07,0.00,0.01
7:51:11 PM,9.18,0.43,-1.17,0.03,0.01,0.01
7:51:11 PM,9.16,0.45,-1.10,0.03,-0.01,0.01
7:51:11 PM,9.23,0.48,-1.12,0.01,-0.02,0.01
7:51:11 PM,9.23,0.53,-1.13,-0.02,-0.03,0.01
7:51:11 PM,9.12,0.45,-1.15,0.08,-0.01,0.01
7:51:11 PM,9.18,0.40,-1.12,0.00,-0.02,0.01
7:51:11 PM,9.21,0.44,-1.15,0.00,-0.02,0.01
7:51:11 PM,9.20,0.42,-1.06,0.02,-0.01,0.01
7:51:11 PM,9.22,0.43,-1.18,-0.03,-0.02,0.01
7:51:12 PM,9.18,0.47,-1.16,-0.02,-0.04,0.01
7:51:12 PM,9.19,0.41,-1.02,0.06,-0.00,0.01
7:51:12 PM,9.18,0.34,-1.06,0.00,-0.02,0.01
7:51:12 PM,9.19,0.41,-1.12,-0.00,-0.02,0.01
7:51:12 PM,9.20,0.47,-1.10,-0.00,-0.02,0.01
7:51:12 PM,9.20,0.48,-1.19,-0.01,-0.01,0.01
7:51:12 PM,9.20,0.45,-1.13,0.03,-0.02,0.01
7:51:12 PM,9.21,0.47,-1.08,-0.00,-0.02,0.01
7:51:12 PM,9.18,0.45,-1.11,0.00,-0.02,0.01
7:51:12 PM,9.18,0.47,-1.12,-0.02,-0.01,0.01
7:51:13 PM,9.19,0.41,-1.15,0.02,-0.00,0.01
7:51:13 PM,9.21,0.43,-1.19,-0.04,-0.03,0.01
7:51:13 PM,9.20,0.40,-1.14,0.04,-0.02,0.01
7:51:13 PM,9.22,0.40,-1.10,-0.01,-0.02,0.01
7:51:13 PM,9.17,0.39,-1.09,0.02,-0.02,0.01
7:51:13 PM,9.20,0.46,-1.09,-0.01,-0.01,0.01
7:51:13 PM,9.18,0.39,-1.09,0.01,-0.00,0.01
7:51:13 PM,9.19,0.40,-1.05,0.05,-0.02,0.01
7:51:13 PM,9.22,0.45,-1.13,-0.04,-0.05,0.01
7:51:14 PM,9.15,0.41,-1.16,-0.02,-0.04,0.01
7:51:14 PM,9.18,0.41,-1.14,0.01,-0.01,0.01
7:51:14 PM,9.17,0.41,-1.10,-0.00,-0.02,0.01
7:51:14 PM,9.18,0.43,-1.12,-0.01,-0.02,0.01
7:51:14 PM,9.19,0.43,-1.17,0.02,-0.02,0.01
7:51:14 PM,9.20,0.41,-1.10,-0.01,-0.03,0.01
7:51:14 PM,9.17,0.44,-1.17,0.01,-0.00,0.01
7:51:14 PM,9.19,0.46,-1.15,0.01,-0.00,0.01
7:51:14 PM,9.19,0.47,-1.10,-0.04,-0.02,0.01
7:51:14 PM,9.17,0.47,-1.09,-0.01,-0.02,0.01
7:51:15 PM,9.17,0.48,-1.07,0.02,-0.03,0.01
7:51:15 PM,9.19,0.47,-1.14,-0.00,-0.00,0.01
7:51:15 PM,9.17,0.46,-1.05,0.05,-0.00,0.01
7:51:15 PM,9.18,0.47,-1.11,0.03,-0.02,0.01
7:51:15 PM,9.28,0.57,-1.08,-0.01,-0.01,0.01
7:51:15 PM,9.22,0.45,-1.05,0.04,0.03,0.01
7:51:15 PM,9.15,0.53,-1.05,0.01,-0.03,0.01
7:51:15 PM,9.25,0.44,-1.14,-0.01,-0.02,0.01
7:51:15 PM,9.08,0.32,-1.06,-0.15,-0.19,0.01
7:51:16 PM,9.04,0.23,-1.36,0.22,0.22,0.01
7:51:16 PM,9.14,0.43,-0.77,0.24,0.45,0.01
7:51:16 PM,9.17,0.32,-0.84,0.05,0.03,0.01
7:51:16 PM,9.21,0.43,-0.62,-0.04,-0.15,0.01
7:51:16 PM,8.92,0.34,-1.00,0.06,0.03,0.01
7:51:16 PM,9.19,0.39,-0.72,0.06,0.04,0.01
7:51:16 PM,9.12,0.28,-1.08,-0.10,0.04,0.01
7:51:16 PM,9.19,0.49,-0.69,-0.00,-0.05,0.01
7:51:16 PM,9.22,0.25,-0.86,0.12,0.08,0.01
7:51:17 PM,9.22,0.61,-0.50,-0.11,-0.01,0.01
7:51:17 PM,8.81,0.31,-0.72,-0.13,-0.01,0.01
7:51:17 PM,9.31,0.48,-0.67,0.15,-0.08,0.01
7:51:17 PM,9.17,0.47,-0.64,0.03,-0.01,0.01
7:51:17 PM,9.26,0.50,-0.70,-0.02,-0.06,0.01
7:51:17 PM,9.22,0.50,-0.65,0.01,-0.02,0.01
7:51:17 PM,9.19,0.40,-0.72,-0.07,-0.01,0.01
7:51:17 PM,9.20,0.46,-0.77,0.04,-0.00,0.01
7:51:17 PM,9.18,0.50,-0.64,-0.07,-0.05,0.01
7:51:17 PM,9.20,0.52,-0.68,0.06,-0.02,0.01
7:51:18 PM,9.18,0.45,-0.70,0.11,-0.02,0.01
7:51:18 PM,9.21,0.43,-0.76,-0.08,-0.07,0.01
7:51:18 PM,9.20,0.44,-0.73,0.03,-0.05,0.01
7:51:18 PM,9.20,0.48,-0.72,0.01,-0.03,0.01
7:51:18 PM,9.11,0.35,-0.92,-0.16,-0.00,0.01
7:51:18 PM,9.20,0.41,-0.87,0.12,0.01,0.01
7:51:18 PM,9.20,0.44,-0.75,0.03,-0.01,0.01
7:51:18 PM,9.20,0.48,-0.81,-0.00,-0.01,0.01
7:51:18 PM,9.20,0.48,-0.83,-0.06,-0.02,0.01
7:51:19 PM,9.21,0.49,-0.78,0.04,-0.01,0.01
7:51:19 PM,9.17,0.54,-0.77,0.01,-0.01,0.01
7:51:19 PM,9.21,0.55,-0.76,0.02,-0.00,0.01
7:51:19 PM,9.15,0.54,-0.73,0.06,-0.00,0.01
7:51:19 PM,9.21,0.57,-0.79,0.02,-0.04,0.01
7:51:19 PM,9.28,0.54,-0.73,0.04,-0.04,0.01
7:51:19 PM,9.16,0.56,-0.77,-0.00,-0.02,0.01
7:51:19 PM,9.19,0.53,-0.84,0.04,-0.02,0.01
7:51:19 PM,9.17,0.52,-0.89,0.00,-0.03,0.01
7:51:19 PM,9.11,0.49,-0.90,0.08,-0.01,0.01
7:51:20 PM,9.24,0.47,-0.87,0.01,0.00,0.01
7:51:20 PM,9.24,0.52,-0.85,-0.01,0.01,0.01
7:51:20 PM,9.17,0.54,-0.82,0.00,-0.01,0.01
7:51:20 PM,9.18,0.52,-0.81,0.04,-0.02,0.01
7:51:20 PM,9.16,0.51,-0.82,-0.00,-0.01,0.01
7:51:20 PM,9.19,0.52,-0.88,-0.02,-0.03,0.01
7:51:20 PM,9.18,0.45,-0.88,0.03,-0.01,0.01
7:51:20 PM,9.16,0.52,-0.86,0.00,-0.01,0.01
7:51:20 PM,9.14,0.53,-0.86,0.03,-0.01,0.01
7:51:21 PM,9.15,0.47,-0.87,-0.03,-0.03,0.01
7:51:21 PM,9.19,0.43,-0.91,0.05,-0.01,0.01
7:51:21 PM,9.15,0.45,-0.85,0.00,-0.01,0.01
7:51:21 PM,9.16,0.47,-0.87,0.01,-0.02,0.01
7:51:21 PM,9.14,0.48,-0.81,0.02,-0.03,0.01
7:51:21 PM,9.19,0.48,-0.83,0.00,-0.04,0.01
7:51:21 PM,9.25,0.43,-0.96,-0.01,-0.04,0.01
7:51:21 PM,9.19,0.44,-0.90,0.03,-0.01,0.01
7:51:21 PM,9.22,0.47,-0.87,0.03,-0.00,0.01
7:51:21 PM,9.12,0.45,-0.73,-0.01,0.00,0.01
7:51:22 PM,9.24,0.45,-0.81,-0.03,-0.00,0.01
7:51:22 PM,9.17,0.41,-0.81,0.06,-0.04,0.01
7:51:22 PM,9.18,0.47,-0.74,-0.02,-0.04,0.01
7:51:22 PM,9.14,0.47,-0.78,-0.04,-0.02,0.01
7:51:22 PM,9.15,0.56,-0.83,0.07,-0.01,0.01
7:51:22 PM,9.17,0.48,-0.84,-0.05,-0.02,0.01
7:51:22 PM,9.17,0.51,-0.78,-0.10,-0.08,0.01
7:51:22 PM,9.08,0.56,-0.86,0.11,0.06,0.01
7:51:22 PM,9.08,0.54,-0.80,0.07,-0.03,0.01
7:51:23 PM,9.21,0.53,-0.81,0.05,-0.02,0.01
7:51:23 PM,9.25,0.61,-0.79,0.02,-0.02,0.01
7:51:23 PM,9.20,0.60,-0.78,-0.01,-0.03,0.01
7:51:23 PM,9.14,0.56,-0.88,0.03,0.01,0.01
7:51:23 PM,9.14,0.55,-0.80,0.03,-0.02,0.01
7:51:23 PM,9.12,0.54,-0.90,0.00,0.01,0.01
7:51:23 PM,9.22,0.56,-0.85,0.03,-0.06,0.01
7:51:23 PM,9.19,0.55,-0.86,0.01,-0.03,0.01
7:51:23 PM,9.21,0.56,-0.81,-0.01,-0.04,0.01
7:51:23 PM,9.15,0.56,-0.83,0.01,-0.01,0.01
7:51:24 PM,9.15,0.56,-0.87,-0.02,-0.03,0.01
7:51:24 PM,9.20,0.60,-0.89,0.02,-0.03,0.01
7:51:24 PM,9.19,0.58,-0.91,-0.01,-0.01,0.01
7:51:24 PM,9.16,0.57,-0.90,0.02,-0.01,0.01
7:51:24 PM,9.19,0.60,-0.89,0.01,-0.02,0.01
7:51:24 PM,9.20,0.58,-0.87,0.00,-0.01,0.01
7:51:24 PM,9.19,0.60,-0.87,0.00,-0.01,0.01
7:51:24 PM,9.15,0.61,-0.84,0.02,0.00,0.01
7:51:24 PM,9.18,0.61,-0.77,0.03,-0.03,0.01
7:51:25 PM,9.20,0.61,-0.83,-0.04,-0.02,0.01
7:51:25 PM,9.19,0.63,-0.88,0.03,-0.01,0.01
7:51:25 PM,9.14,0.61,-0.78,0.01,-0.02,0.01
7:51:25 PM,9.20,0.60,-0.90,0.01,-0.02,0.01
7:51:25 PM,9.19,0.61,-0.81,-0.01,-0.02,0.01
7:51:25 PM,9.19,0.63,-0.83,0.02,-0.02,0.01
7:51:25 PM,9.18,0.61,-0.83,-0.00,-0.03,0.01
7:51:25 PM,9.21,0.58,-0.89,-0.03,-0.02,0.01
7:51:25 PM,9.17,0.58,-0.87,0.02,-0.02,0.01
7:51:25 PM,9.20,0.59,-0.89,-0.02,-0.02,0.01
7:51:26 PM,9.18,0.56,-0.84,0.02,-0.02,0.01
7:51:26 PM,9.19,0.55,-0.81,0.03,-0.07,0.01
7:51:26 PM,9.09,0.49,-0.67,0.05,-0.12,0.01
7:51:26 PM,9.20,0.51,-0.93,-0.01,-0.01,0.01
7:51:26 PM,9.21,0.52,-0.91,0.04,-0.02,0.01
7:51:26 PM,9.21,0.52,-0.93,-0.01,-0.02,0.01
7:51:26 PM,9.16,0.51,-0.88,0.01,-0.02,0.01
7:51:26 PM,9.16,0.51,-0.91,-0.02,-0.01,0.01
7:51:26 PM,9.21,0.54,-0.87,0.01,0.00,0.01
7:51:27 PM,9.15,0.57,-0.97,-0.01,-0.00,0.01
7:51:27 PM,9.18,0.56,-0.88,0.03,-0.02,0.01
7:51:27 PM,9.20,0.54,-0.91,-0.02,-0.02,0.01
7:51:27 PM,9.17,0.56,-0.86,-0.00,-0.01,0.01
7:51:27 PM,9.19,0.57,-0.88,-0.02,-0.02,0.01
7:51:27 PM,9.20,0.53,-0.91,0.02,-0.03,0.01
7:51:27 PM,9.20,0.52,-0.98,0.12,-0.04,0.01
7:51:27 PM,9.21,0.50,-0.99,0.05,-0.06,0.01
7:51:27 PM,9.18,0.44,-1.00,0.00,-0.03,0.01
7:51:28 PM,9.20,0.42,-1.03,-0.00,-0.00,0.01
7:51:28 PM,9.18,0.47,-1.00,0.02,-0.01,0.01
7:51:28 PM,9.16,0.46,-0.91,-0.02,0.00,0.01
7:51:28 PM,9.20,0.51,-1.02,0.00,-0.00,0.01
7:51:28 PM,9.18,0.48,-0.99,0.02,-0.02,0.01
7:51:28 PM,9.20,0.52,-0.95,-0.02,-0.00,0.01
7:51:28 PM,9.22,0.55,-1.00,0.00,-0.05,0.01
7:51:28 PM,9.20,0.52,-0.98,0.02,-0.00,0.01
7:51:28 PM,9.14,0.53,-0.98,0.00,-0.03,0.01
7:51:28 PM,9.20,0.54,-0.97,0.02,0.00,0.01
7:51:29 PM,9.17,0.55,-0.93,0.01,0.00,0.01
7:51:29 PM,9.22,0.56,-0.96,0.03,-0.01,0.01
7:51:29 PM,9.18,0.55,-0.91,0.00,-0.01,0.01
7:51:29 PM,9.15,0.51,-0.94,0.03,-0.01,0.01
7:51:29 PM,9.19,0.54,-0.93,0.01,-0.03,0.01
7:51:29 PM,9.19,0.54,-0.95,0.02,-0.02,0.01
7:51:29 PM,9.21,0.50,-0.93,0.02,-0.02,0.01
7:51:29 PM,9.19,0.54,-0.96,0.03,-0.02,0.01
7:51:29 PM,9.15,0.55,-0.98,-0.04,-0.02,0.01
7:51:30 PM,9.19,0.48,-0.98,0.07,0.00,0.01
7:51:30 PM,9.16,0.52,-0.85,0.02,0.01,0.01
7:51:30 PM,9.15,0.54,-0.95,-0.04,-0.03,0.01
7:51:30 PM,9.17,0.52,-0.96,0.01,-0.02,0.01
7:51:30 PM,9.20,0.49,-0.96,0.00,-0.03,0.01
7:51:30 PM,9.15,0.53,-0.96,0.04,-0.01,0.01
7:51:30 PM,9.18,0.55,-0.90,0.04,0.00,0.01
7:51:30 PM,9.22,0.55,-0.95,-0.01,-0.02,0.01
7:51:30 PM,9.21,0.62,-0.91,0.01,-0.01,0.01
7:51:30 PM,9.18,0.61,-0.91,0.00,-0.02,0.01
7:51:31 PM,9.19,0.55,-0.87,-0.00,-0.03,0.01
7:51:31 PM,9.17,0.59,-0.94,0.01,0.00,0.01
7:51:31 PM,9.21,0.61,-0.85,0.02,-0.02,0.01
7:51:31 PM,9.19,0.62,-0.94,0.01,-0.00,0.01
7:51:31 PM,9.18,0.63,-0.90,0.03,-0.01,0.01
7:51:31 PM,9.20,0.59,-0.93,-0.05,-0.05,0.01
7:51:31 PM,9.17,0.58,-0.98,0.05,0.00,0.01
7:51:31 PM,9.15,0.59,-0.93,-0.00,-0.03,0.01
7:51:31 PM,9.17,0.61,-0.96,0.02,-0.01,0.01
7:51:32 PM,9.15,0.58,-0.91,-0.01,-0.01,0.01
7:51:32 PM,9.18,0.62,-0.98,-0.03,-0.03,0.01
7:51:32 PM,9.19,0.56,-0.95,0.03,-0.03,0.01
7:51:32 PM,9.17,0.56,-0.94,0.01,-0.00,0.01
7:51:32 PM,9.19,0.57,-0.96,0.02,-0.02,0.01
7:51:32 PM,9.19,0.57,-0.92,0.02,-0.01,0.01
7:51:32 PM,9.20,0.58,-0.95,0.00,-0.02,0.01
7:51:32 PM,9.19,0.56,-0.94,-0.02,-0.01,0.01
7:51:32 PM,9.18,0.55,-0.94,0.06,-0.00,0.01
7:51:32 PM,9.18,0.55,-0.89,0.04,-0.02,0.01
7:51:33 PM,9.20,0.48,-0.96,0.01,-0.04,0.01
7:51:33 PM,9.20,0.50,-0.99,0.01,-0.01,0.01
7:51:33 PM,9.15,0.45,-0.95,-0.02,-0.03,0.01
7:51:33 PM,9.18,0.45,-1.00,0.02,-0.02,0.01
7:51:33 PM,9.17,0.45,-0.95,0.02,-0.01,0.01
7:51:33 PM,9.21,0.48,-0.94,0.03,-0.00,0.01
7:51:33 PM,9.20,0.52,-0.89,0.01,-0.00,0.01
7:51:33 PM,9.17,0.51,-0.94,-0.01,-0.02,0.01
7:51:33 PM,9.17,0.47,-0.91,0.01,-0.01,0.01
7:51:34 PM,9.16,0.51,-0.88,-0.04,-0.04,0.01
7:51:34 PM,9.13,0.48,-0.97,-0.03,-0.05,0.01
7:51:34 PM,9.21,0.49,-1.06,0.07,-0.01,0.01
7:51:34 PM,9.17,0.47,-0.95,-0.00,-0.01,0.01
7:51:34 PM,9.18,0.49,-0.96,0.06,-0.02,0.01
7:51:34 PM,9.16,0.49,-0.94,0.03,-0.00,0.01
7:51:34 PM,9.19,0.49,-0.97,0.03,-0.00,0.01
7:51:34 PM,9.21,0.47,-0.91,-0.00,-0.02,0.01
7:51:34 PM,9.22,0.50,-1.02,0.05,0.02,0.01
7:51:34 PM,9.17,0.51,-0.98,-0.02,-0.03,0.01
7:51:35 PM,9.20,0.54,-0.93,0.00,-0.02,0.01
7:51:35 PM,9.17,0.50,-0.92,-0.02,-0.01,0.01
7:51:35 PM,9.15,0.53,-0.96,0.00,-0.02,0.01
7:51:35 PM,9.17,0.54,-0.96,0.02,-0.00,0.01
7:51:35 PM,9.19,0.50,-0.97,-0.03,-0.02,0.01
7:51:35 PM,9.18,0.52,-0.96,0.05,0.01,0.01
7:51:35 PM,9.17,0.51,-0.93,0.03,-0.01,0.01
7:51:35 PM,9.19,0.52,-0.87,-0.00,-0.04,0.01
7:51:35 PM,9.19,0.53,-0.96,0.01,0.00,0.01
7:51:36 PM,9.21,0.58,-0.91,0.05,-0.01,0.01
7:51:36 PM,9.16,0.57,-0.91,-0.01,-0.02,0.01
7:51:36 PM,9.19,0.54,-0.90,0.05,-0.01,0.01
7:51:36 PM,9.21,0.56,-0.85,-0.00,-0.02,0.01
7:51:36 PM,9.22,0.61,-0.94,0.00,-0.02,0.01
7:51:36 PM,9.19,0.62,-0.92,0.02,-0.01,0.01
7:51:36 PM,9.18,0.62,-0.89,0.01,-0.02,0.01
7:51:36 PM,9.18,0.58,-0.92,0.01,-0.01,0.01
7:51:36 PM,9.21,0.58,-0.93,0.01,-0.03,0.01
7:51:36 PM,9.17,0.57,-0.89,-0.01,-0.02,0.01
7:51:37 PM,9.20,0.57,-0.91,0.03,-0.01,0.01
7:51:37 PM,9.16,0.55,-0.91,-0.02,-0.02,0.01
7:51:37 PM,9.22,0.60,-0.90,0.03,-0.01,0.01
7:51:37 PM,9.17,0.60,-0.88,0.01,-0.01,0.01
7:51:37 PM,9.17,0.59,-0.89,-0.01,-0.03,0.01
7:51:37 PM,9.14,0.59,-0.91,-0.00,-0.03,0.01
7:51:37 PM,9.19,0.55,-0.92,0.02,-0.04,0.01
7:51:37 PM,9.18,0.53,-0.93,-0.03,-0.03,0.01
7:51:37 PM,9.17,0.50,-0.98,0.02,-0.02,0.01
7:51:38 PM,9.19,0.53,-0.90,-0.00,-0.02,0.01
7:51:38 PM,9.20,0.51,-0.95,-0.00,-0.01,0.01
7:51:38 PM,9.17,0.53,-0.98,0.03,0.00,0.01
7:51:38 PM,9.16,0.55,-0.94,0.03,-0.01,0.01
7:51:38 PM,9.19,0.56,-0.94,0.01,-0.00,0.01
7:51:38 PM,9.18,0.60,-0.85,-0.01,0.06,0.01
7:51:38 PM,9.19,0.60,-0.86,0.00,-0.01,0.01
7:51:38 PM,9.18,0.62,-0.88,0.01,0.00,0.01
7:51:38 PM,9.15,0.61,-0.85,0.01,-0.02,0.01
7:51:39 PM,9.22,0.65,-0.86,0.01,-0.01,0.01
7:51:39 PM,9.15,0.56,-0.84,0.00,-0.03,0.01
7:51:39 PM,9.14,0.59,-0.84,-0.02,-0.02,0.01
7:51:39 PM,9.25,0.64,-0.89,0.05,-0.05,0.01
7:51:39 PM,9.18,0.60,-0.85,-0.03,0.00,0.01
7:51:39 PM,9.19,0.62,-0.86,-0.03,-0.01,0.01
7:51:39 PM,9.13,0.61,-0.86,0.05,-0.01,0.01
7:51:39 PM,9.17,0.62,-0.78,-0.02,0.00,0.01
7:51:39 PM,9.19,0.61,-0.77,0.00,-0.04,0.01
7:51:39 PM,9.20,0.63,-0.85,-0.03,0.02,0.01
7:51:40 PM,9.20,0.63,-0.79,0.02,-0.03,0.01
7:51:40 PM,9.17,0.66,-0.81,-0.04,-0.00,0.01
7:51:40 PM,9.17,0.66,-0.82,0.05,-0.02,0.01
7:51:40 PM,9.20,0.63,-0.80,0.00,-0.01,0.01
7:51:40 PM,9.18,0.61,-0.82,-0.02,-0.04,0.01
7:51:40 PM,9.19,0.61,-0.86,0.04,-0.03,0.01
7:51:40 PM,9.17,0.61,-0.87,0.03,-0.03,0.01
7:51:40 PM,9.17,0.61,-0.92,-0.00,0.01,0.01
7:51:40 PM,9.19,0.59,-0.86,0.01,0.00,0.01
7:51:41 PM,9.16,0.62,-0.87,0.03,-0.00,0.01
7:51:41 PM,9.23,0.63,-0.81,0.02,0.00,0.01
7:51:41 PM,9.18,0.65,-0.87,-0.02,-0.04,0.01
7:51:41 PM,9.20,0.65,-0.80,0.01,-0.02,0.01
7:51:41 PM,9.16,0.62,-0.82,0.03,-0.01,0.01
7:51:41 PM,9.19,0.64,-0.83,0.01,-0.02,0.01
7:51:41 PM,9.15,0.66,-0.87,-0.01,-0.01,0.01
7:51:41 PM,9.18,0.63,-0.82,0.04,-0.00,0.01
7:51:41 PM,9.17,0.59,-0.83,-0.01,-0.03,0.01
7:51:41 PM,9.18,0.61,-0.80,0.03,-0.01,0.01
7:51:42 PM,9.18,0.63,-0.86,0.01,-0.01,0.01
7:51:42 PM,9.16,0.64,-0.84,0.02,-0.02,0.01
7:51:42 PM,9.20,0.60,-0.89,-0.01,-0.05,0.01
7:51:42 PM,9.18,0.53,-0.92,-0.00,-0.01,0.01
7:51:42 PM,9.15,0.53,-0.87,0.01,-0.00,0.01
7:51:42 PM,9.17,0.52,-0.91,0.01,-0.01,0.01
7:51:42 PM,9.16,0.61,-0.88,0.02,-0.01,0.01
7:51:42 PM,9.21,0.59,-0.85,-0.01,-0.01,0.01
7:51:42 PM,9.18,0.59,-0.82,0.01,-0.00,0.01
7:51:43 PM,9.16,0.60,-0.81,0.02,-0.03,0.01
7:51:43 PM,9.17,0.56,-0.87,0.02,-0.01,0.01
7:51:43 PM,9.15,0.57,-0.80,0.03,-0.01,0.01
7:51:43 PM,9.16,0.55,-0.78,0.02,-0.00,0.01
7:51:43 PM,9.17,0.58,-0.83,0.01,-0.00,0.01
7:51:43 PM,9.20,0.63,-0.80,-0.00,-0.01,0.01
7:51:43 PM,9.19,0.61,-0.78,0.01,-0.02,0.01
7:51:43 PM,9.17,0.61,-0.83,0.01,-0.02,0.01
7:51:43 PM,9.21,0.61,-0.81,-0.01,-0.02,0.01
7:51:43 PM,9.20,0.64,-0.82,0.03,-0.02,0.01
7:51:44 PM,9.15,0.62,-0.80,0.00,-0.02,0.01
7:51:44 PM,9.17,0.65,-0.74,0.01,-0.02,0.01
7:51:44 PM,9.22,0.63,-0.77,-0.01,-0.02,0.01
7:51:44 PM,9.19,0.64,-0.86,0.02,-0.01,0.01
7:51:44 PM,9.17,0.59,-0.78,0.02,-0.01,0.01
7:51:44 PM,9.18,0.63,-0.81,0.00,-0.02,0.01
7:51:44 PM,9.18,0.65,-0.77,0.03,-0.01,0.01
7:51:44 PM,9.17,0.59,-0.80,-0.02,-0.03,0.01
7:51:44 PM,9.17,0.62,-0.85,-0.02,-0.02,0.01
7:51:45 PM,9.18,0.64,-0.83,-0.01,-0.02,0.01
7:51:45 PM,9.19,0.60,-0.74,0.00,-0.01,0.01
7:51:45 PM,9.20,0.59,-0.81,-0.00,-0.03,0.01
7:51:45 PM,9.19,0.62,-0.80,-0.01,-0.02,0.01
7:51:45 PM,9.18,0.60,-0.82,-0.01,-0.02,0.01
7:51:45 PM,9.17,0.60,-0.84,0.01,-0.01,0.01
7:51:45 PM,9.17,0.59,-0.83,0.05,0.01,0.01
7:51:45 PM,9.20,0.61,-0.76,0.02,-0.00,0.01
7:51:45 PM,9.17,0.68,-0.80,0.00,-0.01,0.01
7:51:45 PM,9.11,0.74,-0.66,0.05,0.01,0.01
7:51:46 PM,9.11,0.75,-0.68,-0.00,-0.02,0.01
7:51:46 PM,9.18,0.74,-0.67,0.03,-0.00,0.01
7:51:46 PM,9.19,0.71,-0.70,0.01,-0.01,0.01
7:51:46 PM,9.14,0.74,-0.67,-0.00,-0.01,0.01
7:51:46 PM,9.17,0.71,-0.74,0.02,-0.02,0.01
7:51:46 PM,9.15,0.72,-0.68,0.02,-0.00,0.01
7:51:46 PM,9.18,0.75,-0.65,0.01,-0.01,0.01
7:51:46 PM,9.14,0.75,-0.69,0.02,-0.00,0.01
7:51:46 PM,9.19,0.76,-0.69,0.02,-0.01,0.01
7:51:47 PM,9.13,0.76,-0.62,0.00,-0.03,0.01
7:51:47 PM,9.16,0.76,-0.66,0.04,-0.00,0.01
7:51:47 PM,9.14,0.76,-0.65,-0.00,-0.01,0.01
7:51:47 PM,9.17,0.81,-0.68,0.02,0.00,0.01
7:51:47 PM,9.17,0.80,-0.66,0.02,-0.01,0.01
7:51:47 PM,9.19,0.81,-0.67,0.00,-0.01,0.01
7:51:47 PM,9.15,0.81,-0.65,0.01,-0.02,0.01
7:51:47 PM,9.16,0.85,-0.64,0.03,0.00,0.01
7:51:47 PM,9.17,0.82,-0.70,-0.01,-0.01,0.01
7:51:47 PM,9.17,0.82,-0.65,0.02,-0.02,0.01
7:51:48 PM,9.19,0.82,-0.62,-0.01,-0.03,0.01
7:51:48 PM,9.15,0.79,-0.57,-0.00,-0.01,0.01
7:51:48 PM,9.16,0.78,-0.60,0.04,-0.01,0.01
7:51:48 PM,9.23,0.81,-0.56,0.06,0.10,0.01
7:51:48 PM,9.17,0.81,-0.59,-0.03,-0.03,0.01
7:51:48 PM,9.14,0.76,-0.56,-0.03,-0.06,0.01
7:51:48 PM,9.18,0.74,-0.64,0.02,-0.02,0.01
7:51:48 PM,9.18,0.74,-0.72,0.04,-0.02,0.01
7:51:48 PM,9.18,0.78,-0.61,0.02,-0.01,0.01
7:51:49 PM,9.16,0.72,-0.63,-0.01,-0.02,0.01
7:51:49 PM,9.16,0.75,-0.64,0.02,-0.02,0.01
7:51:49 PM,9.20,0.70,-0.65,0.03,-0.01,0.01
7:51:49 PM,9.21,0.79,-0.59,0.03,-0.00,0.01
7:51:49 PM,9.19,0.83,-0.52,0.03,-0.00,0.01
7:51:49 PM,9.15,0.88,-0.55,-0.00,-0.01,0.01
7:51:49 PM,9.19,0.87,-0.64,0.06,0.02,0.01
7:51:49 PM,9.04,0.86,-0.55,0.05,0.03,0.01
7:51:49 PM,8.93,0.92,-0.40,-0.00,0.20,0.01
7:51:49 PM,9.07,0.86,-0.36,-0.03,0.01,0.01
7:51:50 PM,9.16,0.87,-0.31,0.01,-0.04,0.01
7:51:50 PM,9.14,0.89,-0.34,0.01,-0.02,0.01
7:51:50 PM,9.17,0.91,-0.34,0.01,-0.04,0.01
7:51:50 PM,9.18,0.92,-0.33,0.00,-0.02,0.01
7:51:50 PM,9.12,0.91,-0.32,-0.01,-0.03,0.01
7:51:50 PM,9.14,0.90,-0.37,0.03,-0.02,0.01
7:51:50 PM,9.12,0.96,-0.34,0.01,-0.01,0.01
7:51:50 PM,9.15,0.91,-0.37,0.03,-0.01,0.01
7:51:50 PM,9.14,0.95,-0.37,0.01,-0.03,0.01
7:51:51 PM,9.16,0.94,-0.33,-0.01,-0.02,0.01
7:51:51 PM,9.12,0.84,-0.41,-0.02,-0.03,0.01
7:51:51 PM,9.18,0.92,-0.35,-0.02,-0.02,0.01
7:51:51 PM,9.15,0.84,-0.39,-0.00,-0.02,0.01
7:51:51 PM,9.15,0.81,-0.48,-0.03,-0.02,0.01
7:51:51 PM,9.14,0.85,-0.42,-0.01,-0.04,0.01
7:51:51 PM,9.12,0.75,-0.37,0.02,-0.02,0.01
7:51:51 PM,9.18,0.74,-0.38,0.05,-0.01,0.01
7:51:51 PM,9.13,0.79,-0.36,0.03,-0.01,0.01
7:51:52 PM,9.15,0.82,-0.39,0.03,0.00,0.01
7:51:52 PM,9.17,0.89,-0.38,0.03,-0.03,0.01
7:51:52 PM,9.16,0.93,-0.29,-0.05,-0.01,0.01
7:51:52 PM,9.29,0.84,-0.40,0.05,-0.06,0.01
7:51:52 PM,9.14,0.87,-0.40,0.02,-0.01,0.01
7:51:52 PM,9.13,0.91,-0.40,-0.01,-0.02,0.01
7:51:52 PM,9.11,0.90,-0.44,0.01,-0.01,0.01
7:51:52 PM,9.19,0.93,-0.46,-0.01,-0.02,0.01
7:51:52 PM,9.16,0.92,-0.45,-0.00,-0.03,0.01
7:51:52 PM,9.10,0.92,-0.44,0.01,-0.04,0.01
7:51:53 PM,9.03,0.88,-0.63,0.02,-0.10,0.01
7:51:53 PM,9.13,0.91,-0.49,0.01,-0.02,0.01
7:51:53 PM,9.17,0.92,-0.44,0.00,-0.02,0.01
7:51:53 PM,9.12,0.93,-0.55,-0.01,-0.02,0.01
7:51:53 PM,9.18,0.93,-0.50,0.01,-0.01,0.01
7:51:53 PM,9.14,0.92,-0.53,0.01,-0.01,0.01
7:51:53 PM,9.16,0.92,-0.49,0.01,-0.02,0.01
7:51:53 PM,9.13,0.95,-0.48,-0.00,-0.03,0.01
7:51:53 PM,9.15,0.90,-0.52,0.01,-0.03,0.01
7:51:54 PM,9.14,0.90,-0.49,-0.02,-0.05,0.01
7:51:54 PM,9.13,0.87,-0.52,-0.02,-0.03,0.01
7:51:54 PM,9.16,0.85,-0.52,0.07,0.04,0.01
7:51:54 PM,9.13,0.82,-0.58,0.00,-0.02,0.01
7:51:54 PM,9.19,0.81,-0.52,0.03,-0.01,0.01
7:51:54 PM,9.16,0.81,-0.53,0.01,-0.03,0.01
7:51:54 PM,9.15,0.87,-0.45,-0.01,-0.02,0.01
7:51:54 PM,9.18,0.81,-0.47,-0.03,-0.05,0.01
7:51:54 PM,9.18,0.80,-0.59,0.02,0.00,0.01
7:51:54 PM,9.11,0.83,-0.56,0.02,-0.04,0.01
7:51:55 PM,9.13,0.91,-0.51,0.01,-0.01,0.01
7:51:55 PM,9.15,0.85,-0.52,-0.00,-0.02,0.01
7:51:55 PM,9.15,0.86,-0.57,-0.02,-0.06,0.01
7:51:55 PM,9.21,0.91,-0.49,-0.01,-0.04,0.01
7:51:55 PM,9.11,0.89,-0.62,0.00,-0.02,0.01
7:51:55 PM,9.15,0.91,-0.57,0.03,-0.02,0.01
7:51:55 PM,9.17,0.88,-0.62,0.00,-0.03,0.01
7:51:55 PM,9.03,0.83,-0.62,-0.01,-0.07,0.01
7:51:55 PM,9.12,0.87,-0.64,0.00,0.01,0.01
7:51:56 PM,9.14,0.83,-0.57,0.07,0.01,0.01
7:51:56 PM,9.15,0.88,-0.61,-0.01,-0.02,0.01
7:51:56 PM,9.15,0.87,-0.61,-0.02,-0.02,0.01
7:51:56 PM,9.16,0.87,-0.61,-0.01,-0.01,0.01
7:51:56 PM,9.14,0.85,-0.63,-0.02,-0.03,0.01
7:51:56 PM,9.13,0.83,-0.65,0.00,-0.02,0.01
7:51:56 PM,9.19,0.88,-0.66,0.02,-0.02,0.01
7:51:56 PM,9.12,0.84,-0.63,-0.04,-0.03,0.01
7:51:56 PM,9.16,0.86,-0.62,0.01,-0.03,0.01
7:51:56 PM,9.17,0.88,-0.68,-0.00,-0.03,0.01
7:51:57 PM,9.17,0.87,-0.68,0.01,-0.02,0.01
7:51:57 PM,9.17,0.87,-0.65,0.02,-0.01,0.01
7:51:57 PM,9.16,0.86,-0.68,0.02,-0.01,0.01
7:51:57 PM,9.14,0.87,-0.69,0.01,-0.01,0.01
7:51:57 PM,9.12,0.90,-0.69,0.03,-0.02,0.01
7:51:57 PM,9.16,0.91,-0.68,-0.02,-0.02,0.01
7:51:57 PM,9.17,0.85,-0.67,-0.05,-0.04,0.01
7:51:57 PM,9.11,0.96,-0.58,0.05,0.00,0.01
7:51:57 PM,9.16,0.89,-0.68,0.00,-0.02,0.01
7:51:58 PM,9.17,0.89,-0.69,0.04,0.00,0.01
7:51:58 PM,9.16,0.91,-0.62,0.01,-0.01,0.01
7:51:58 PM,9.19,0.91,-0.67,-0.03,-0.02,0.01
7:51:58 PM,9.16,0.89,-0.70,0.02,-0.01,0.01
7:51:58 PM,9.17,0.87,-0.65,0.01,-0.02,0.01
7:51:58 PM,9.19,0.84,-0.65,0.00,-0.02,0.01
7:51:58 PM,9.15,0.87,-0.65,-0.01,-0.01,0.01
7:51:58 PM,9.14,0.88,-0.71,0.05,0.00,0.01
7:51:58 PM,9.14,0.83,-0.65,0.01,-0.02,0.01
7:51:58 PM,9.19,0.85,-0.64,0.04,-0.00,0.01
7:51:59 PM,9.15,0.84,-0.62,0.00,-0.00,0.01
7:51:59 PM,9.16,0.89,-0.64,-0.02,-0.02,0.01
7:51:59 PM,9.17,0.91,-0.66,0.00,-0.01,0.01
7:51:59 PM,9.17,0.92,-0.65,-0.01,-0.02,0.01
7:51:59 PM,9.18,0.92,-0.66,-0.03,-0.03,0.01
7:51:59 PM,9.15,0.91,-0.64,0.02,-0.00,0.01
7:51:59 PM,9.16,0.94,-0.69,-0.00,-0.02,0.01
7:51:59 PM,9.14,0.94,-0.67,0.01,-0.02,0.01
7:51:59 PM,9.19,0.94,-0.65,0.03,-0.02,0.01
7:52:00 PM,9.14,0.91,-0.64,-0.01,-0.02,0.01
7:52:00 PM,9.14,0.93,-0.62,-0.02,0.02,0.01
7:52:00 PM,9.14,0.94,-0.64,-0.02,-0.04,0.01
7:52:00 PM,9.17,0.95,-0.59,0.03,-0.03,0.01
7:52:00 PM,9.15,0.90,-0.62,0.00,-0.01,0.01
7:52:00 PM,9.16,0.90,-0.62,0.03,-0.02,0.01
7:52:00 PM,9.18,0.90,-0.61,0.03,-0.03,0.01
7:52:00 PM,9.17,0.91,-0.58,0.02,-0.02,0.01
7:52:00 PM,9.13,0.90,-0.62,-0.01,-0.02,0.01
7:52:00 PM,9.16,0.86,-0.62,-0.01,-0.03,0.01
7:52:01 PM,9.15,0.88,-0.65,-0.02,-0.02,0.01
7:52:01 PM,9.18,0.89,-0.74,-0.01,-0.04,0.01
7:52:01 PM,9.19,0.88,-0.68,0.04,-0.01,0.01
7:52:01 PM,9.18,0.82,-0.67,0.01,-0.02,0.01
7:52:01 PM,9.12,0.86,-0.67,0.03,0.00,0.01
7:52:01 PM,9.19,0.88,-0.65,0.07,-0.02,0.01
7:52:01 PM,9.15,0.90,-0.61,-0.03,-0.02,0.01
7:52:01 PM,9.14,0.97,-0.70,0.01,0.03,0.01
7:52:01 PM,9.19,0.96,-0.59,0.04,-0.02,0.01
7:52:02 PM,9.17,0.96,-0.61,0.04,-0.01,0.01
7:52:02 PM,9.18,0.99,-0.63,0.06,0.01,0.01
7:52:02 PM,9.17,0.95,-0.53,0.03,-0.00,0.01
7:52:02 PM,9.14,0.97,-0.56,0.00,-0.02,0.01
7:52:02 PM,9.11,0.99,-0.52,0.01,-0.01,0.01
7:52:02 PM,9.15,0.95,-0.61,-0.02,-0.01,0.01
7:52:02 PM,9.17,0.94,-0.44,0.02,-0.02,0.01
7:52:02 PM,9.14,0.85,-0.50,0.02,-0.02,0.01
7:52:02 PM,9.16,1.00,-0.47,0.01,0.01,0.01
7:52:03 PM,9.13,1.03,-0.51,0.05,-0.01,0.01
7:52:03 PM,9.14,0.96,-0.45,0.06,-0.01,0.01
7:52:03 PM,9.17,0.92,-0.53,0.02,-0.00,0.01
7:52:03 PM,9.15,0.97,-0.54,0.02,-0.01,0.01
7:52:03 PM,9.13,0.99,-0.50,-0.00,-0.03,0.01
7:52:03 PM,9.17,0.99,-0.50,0.04,-0.02,0.01
7:52:03 PM,9.15,0.96,-0.50,0.00,-0.03,0.01
7:52:03 PM,9.18,0.92,-0.59,0.02,-0.01,0.01
7:52:03 PM,9.16,0.94,-0.54,0.06,0.01,0.01
7:52:03 PM,9.15,0.91,-0.53,0.00,-0.02,0.01
7:52:04 PM,9.12,0.90,-0.49,0.05,0.00,0.01
7:52:04 PM,9.18,0.92,-0.49,0.02,0.00,0.01
7:52:04 PM,9.15,0.92,-0.54,0.04,0.00,0.01
7:52:04 PM,9.16,0.94,-0.56,0.02,0.01,0.01
7:52:04 PM,9.24,1.18,-0.36,0.08,0.04,0.01
7:52:04 PM,9.22,1.01,-0.49,0.03,0.02,0.01
7:52:04 PM,9.13,0.95,-0.38,-0.01,-0.02,0.01
7:52:04 PM,9.15,1.08,-0.38,0.01,-0.01,0.01
7:52:04 PM,9.12,1.12,-0.34,0.06,0.06,0.01
7:52:05 PM,9.11,1.06,-0.34,-0.06,-0.07,0.01
7:52:05 PM,9.11,0.96,-0.28,0.05,-0.01,0.01
7:52:05 PM,9.14,1.01,-0.25,-0.03,-0.05,0.01
7:52:05 PM,9.17,0.99,-0.50,-0.04,-0.07,0.01
7:52:05 PM,9.17,0.98,-0.42,0.07,0.06,0.01
7:52:05 PM,9.20,0.96,-0.38,0.03,0.03,0.01
7:52:05 PM,9.20,1.05,-0.24,-0.01,-0.02,0.01
7:52:05 PM,9.14,1.02,-0.35,0.01,-0.01,0.01
7:52:05 PM,9.10,1.04,-0.23,0.06,0.02,0.01
7:52:05 PM,9.10,1.02,-0.21,-0.04,-0.02,0.01
7:52:06 PM,9.14,1.01,-0.30,0.03,-0.02,0.01
7:52:06 PM,9.13,1.01,-0.18,0.00,-0.02,0.01
7:52:06 PM,9.14,1.00,-0.25,0.04,-0.00,0.01
7:52:06 PM,9.11,1.01,-0.28,0.00,-0.01,0.01
7:52:06 PM,9.14,0.99,-0.21,0.04,0.04,0.01
7:52:06 PM,9.13,1.08,-0.19,-0.01,-0.03,0.01
7:52:06 PM,9.13,1.07,-0.19,0.02,-0.02,0.01
7:52:06 PM,9.10,1.03,-0.17,-0.09,-0.05,0.01
7:52:06 PM,9.13,1.09,-0.15,-0.00,0.03,0.01
7:52:07 PM,9.05,1.05,-0.17,0.03,0.01,0.01
7:52:07 PM,9.08,1.09,-0.13,-0.02,-0.04,0.01
7:52:07 PM,9.13,1.05,-0.24,0.03,-0.02,0.01
7:52:07 PM,9.14,1.04,-0.25,0.08,-0.01,0.01
7:52:07 PM,9.04,1.07,-0.17,0.03,-0.05,0.01
7:52:07 PM,9.10,1.07,-0.24,0.01,-0.01,0.01
7:52:07 PM,9.08,1.08,-0.19,0.03,-0.01,0.01
7:52:07 PM,9.10,1.09,-0.26,-0.02,-0.02,0.01
7:52:07 PM,9.08,1.10,-0.20,0.02,-0.01,0.01
7:52:07 PM,9.20,1.11,-0.23,-0.10,-0.10,0.01
7:52:08 PM,9.11,1.09,-0.29,0.01,-0.01,0.01
7:52:08 PM,9.12,1.10,-0.27,0.02,-0.00,0.01
7:52:08 PM,9.12,1.08,-0.23,0.01,-0.02,0.01
7:52:08 PM,9.11,1.12,-0.24,0.01,-0.01,0.01
7:52:08 PM,9.12,1.13,-0.19,0.03,0.03,0.01
7:52:08 PM,9.14,1.09,-0.26,0.00,-0.03,0.01
7:52:08 PM,9.13,1.08,-0.29,0.00,-0.03,0.01
7:52:08 PM,9.14,1.05,-0.23,0.02,-0.02,0.01
7:52:08 PM,9.11,1.05,-0.23,0.01,-0.02,0.01
7:52:09 PM,9.12,1.01,-0.28,-0.02,-0.03,0.01
7:52:09 PM,9.09,1.01,-0.23,0.03,-0.03,0.01
7:52:09 PM,9.18,1.02,-0.25,-0.00,-0.03,0.01
7:52:09 PM,9.12,1.03,-0.21,0.03,-0.00,0.01
7:52:09 PM,9.12,1.06,-0.16,-0.00,-0.01,0.01
7:52:09 PM,9.12,1.07,-0.21,0.01,-0.01,0.01
7:52:09 PM,9.12,1.07,-0.24,0.01,-0.00,0.01
7:52:09 PM,9.11,1.03,-0.22,0.02,-0.02,0.01
7:52:09 PM,9.19,1.01,-0.18,0.00,0.03,0.01
7:52:09 PM,8.90,0.99,0.25,0.16,0.19,0.01
7:52:10 PM,9.08,1.01,0.42,0.02,-0.04,0.01
7:52:10 PM,9.10,0.93,0.36,0.01,-0.05,0.01
7:52:10 PM,9.03,0.90,0.41,-0.01,-0.05,0.01
7:52:10 PM,9.10,0.97,0.37,0.02,-0.02,0.01
7:52:10 PM,9.08,0.94,0.37,-0.03,-0.06,0.01
7:52:10 PM,9.03,0.95,0.32,0.02,0.01,0.01
7:52:10 PM,9.00,0.91,0.32,0.02,-0.02,0.01
7:52:10 PM,9.18,0.92,0.45,0.03,-0.02,0.01
7:52:10 PM,8.89,0.91,0.26,-0.00,-0.01,0.01
7:52:11 PM,9.04,0.90,0.27,0.02,-0.03,0.01
7:52:11 PM,9.06,0.99,0.30,-0.00,-0.02,0.01
7:52:11 PM,9.10,0.97,0.34,0.01,-0.01,0.01
7:52:11 PM,9.06,0.98,0.30,-0.00,-0.03,0.01
7:52:11 PM,9.04,0.95,0.31,-0.01,-0.01,0.01
7:52:11 PM,9.08,0.94,0.32,-0.01,-0.01,0.01
7:52:11 PM,9.10,0.94,0.35,0.04,0.02,0.01
7:52:11 PM,9.06,0.94,0.39,-0.00,-0.02,0.01
7:52:11 PM,9.07,0.89,0.34,0.01,-0.01,0.01
7:52:11 PM,9.08,0.92,0.36,-0.01,-0.03,0.01
7:52:12 PM,9.08,0.87,0.38,0.05,0.00,0.01
7:52:12 PM,9.03,0.90,0.33,0.02,-0.02,0.01
7:52:12 PM,9.06,0.93,0.33,0.01,-0.02,0.01
7:52:12 PM,9.02,0.92,0.32,0.04,0.00,0.01
7:52:12 PM,9.03,0.97,0.39,0.04,-0.02,0.01
7:52:12 PM,9.01,1.00,0.26,0.01,-0.02,0.01
7:52:12 PM,9.04,0.98,0.34,0.01,-0.01,0.01
7:52:12 PM,9.08,1.05,0.29,0.03,0.01,0.01
7:52:12 PM,9.06,1.08,0.22,0.03,0.00,0.01
7:52:13 PM,9.04,0.96,0.17,-0.01,-0.05,0.01
7:52:13 PM,9.15,0.90,0.33,-0.03,-0.04,0.01
7:52:13 PM,9.09,0.92,0.36,0.03,-0.01,0.01
7:52:13 PM,9.03,0.90,0.35,0.01,-0.00,0.01
7:52:13 PM,9.01,1.03,0.46,0.03,0.03,0.01
7:52:13 PM,9.05,0.88,0.34,-0.01,-0.03,0.01
7:52:13 PM,9.02,0.90,0.40,0.06,-0.02,0.01
7:52:13 PM,9.05,0.90,0.43,-0.00,-0.04,0.01
7:52:13 PM,9.06,0.93,0.31,-0.02,-0.03,0.01
7:52:13 PM,9.02,0.98,0.31,0.04,-0.02,0.01
7:52:14 PM,9.06,0.98,0.40,-0.04,-0.05,0.01
7:52:14 PM,9.02,0.93,0.29,0.02,-0.02,0.01
7:52:14 PM,9.00,0.98,0.31,0.03,-0.03,0.01
7:52:14 PM,9.09,0.95,0.33,0.02,-0.02,0.01
7:52:14 PM,9.02,0.98,0.30,0.01,-0.05,0.01
7:52:14 PM,9.06,0.93,0.31,-0.01,-0.05,0.01
7:52:14 PM,9.06,0.98,0.29,0.02,-0.02,0.01
7:52:14 PM,9.02,0.98,0.24,-0.01,-0.01,0.01
7:52:14 PM,9.05,0.99,0.26,0.01,-0.01,0.01
7:52:15 PM,9.06,1.00,0.24,0.03,-0.02,0.01
7:52:15 PM,9.04,0.98,0.30,-0.01,-0.00,0.01
7:52:15 PM,9.09,0.98,0.31,0.01,-0.02,0.01
7:52:15 PM,9.06,0.97,0.33,-0.01,-0.01,0.01
7:52:15 PM,9.06,0.97,0.21,-0.00,0.01,0.01
7:52:15 PM,9.10,0.97,0.28,0.01,-0.01,0.01
7:52:15 PM,9.06,0.98,0.30,0.03,-0.01,0.01
7:52:15 PM,9.09,1.10,0.31,0.00,0.03,0.01
7:52:15 PM,9.07,1.04,0.29,0.02,0.04,0.01
7:52:16 PM,9.05,1.08,0.36,0.06,0.00,0.01
7:52:16 PM,9.03,1.02,0.37,0.01,-0.01,0.01
7:52:16 PM,9.12,1.07,0.35,0.02,-0.03,0.01
7:52:16 PM,9.07,1.10,0.39,0.01,-0.03,0.01
7:52:16 PM,9.03,1.07,0.31,0.01,-0.03,0.01
7:52:16 PM,9.03,0.98,0.31,-0.03,-0.04,0.01
7:52:16 PM,9.08,1.07,0.38,-0.00,-0.03,0.01
7:52:16 PM,9.04,1.00,0.31,0.01,-0.02,0.01
7:52:16 PM,9.05,1.00,0.34,0.04,0.01,0.01
7:52:16 PM,9.03,1.05,0.41,0.02,0.01,0.01
7:52:17 PM,9.03,0.98,0.33,-0.01,-0.04,0.01
7:52:17 PM,9.04,1.07,0.37,0.08,-0.06,0.01
7:52:17 PM,9.07,1.06,0.34,0.01,-0.03,0.01
7:52:17 PM,9.05,0.98,0.33,0.03,-0.02,0.01
7:52:17 PM,9.03,1.01,0.29,0.02,-0.01,0.01
7:52:17 PM,9.03,1.05,0.31,0.00,-0.01,0.01
7:52:17 PM,9.06,1.08,0.26,-0.01,-0.02,0.01
7:52:17 PM,9.05,1.09,0.29,0.02,-0.03,0.01
7:52:17 PM,9.06,1.09,0.28,0.02,-0.02,0.01
7:52:18 PM,9.00,1.05,0.29,0.01,-0.01,0.01
7:52:18 PM,9.02,1.07,0.30,0.00,-0.04,0.01
7:52:18 PM,9.07,1.09,0.28,0.01,-0.04,0.01
7:52:18 PM,9.03,1.08,0.28,0.02,-0.01,0.01
7:52:18 PM,8.97,1.05,0.26,0.01,0.01,0.01
7:52:18 PM,9.05,1.06,0.22,0.02,-0.01,0.01
7:52:18 PM,9.02,1.10,0.27,0.01,-0.01,0.01
7:52:18 PM,9.05,1.13,0.27,0.04,0.00,0.01
7:52:18 PM,9.06,1.05,0.31,0.01,-0.04,0.01
7:52:18 PM,9.05,1.04,0.32,0.03,-0.02,0.01
7:52:19 PM,8.99,1.08,0.32,0.01,-0.01,0.01
7:52:19 PM,9.04,1.05,0.25,0.01,-0.00,0.01
7:52:19 PM,9.04,1.08,0.32,0.01,-0.03,0.01
7:52:19 PM,9.05,1.05,0.29,0.01,-0.01,0.01
7:52:19 PM,9.05,1.07,0.28,-0.02,-0.01,0.01
7:52:19 PM,9.10,1.04,0.31,0.00,-0.01,0.01
7:52:19 PM,9.07,1.02,0.29,0.00,-0.02,0.01
7:52:19 PM,9.06,1.01,0.32,0.01,-0.01,0.01
7:52:19 PM,9.07,0.98,0.32,0.01,-0.01,0.01
7:52:20 PM,9.06,1.00,0.24,-0.09,-0.04,0.01
7:52:20 PM,9.10,0.87,0.28,0.04,-0.01,0.01
7:52:20 PM,9.08,0.90,0.25,0.00,-0.02,0.01
7:52:20 PM,9.09,0.91,0.31,0.05,-0.01,0.01
7:52:20 PM,8.92,0.87,0.17,0.08,-0.01,0.01
7:52:20 PM,9.04,0.96,0.24,0.00,-0.03,0.01
7:52:20 PM,9.13,0.96,0.30,0.03,-0.05,0.01
7:52:20 PM,9.08,0.99,0.21,0.02,-0.05,0.01
7:52:20 PM,9.06,0.99,0.22,-0.00,-0.02,0.01
7:52:20 PM,9.07,1.02,0.19,0.02,-0.03,0.01
7:52:21 PM,9.07,0.98,0.20,0.04,-0.02,0.01
7:52:21 PM,9.06,1.02,0.28,0.03,-0.01,0.01
7:52:21 PM,9.07,1.04,0.30,0.01,0.01,0.01
7:52:21 PM,9.08,1.00,0.18,0.02,-0.03,0.01
7:52:21 PM,9.08,0.98,0.24,0.00,-0.02,0.01
7:52:21 PM,9.07,1.02,0.21,0.02,-0.03,0.01
7:52:21 PM,9.04,1.03,0.25,0.01,-0.02,0.01
7:52:21 PM,9.07,1.02,0.26,0.03,0.00,0.01
7:52:21 PM,9.04,1.00,0.26,0.02,-0.01,0.01
7:52:22 PM,8.93,1.00,0.17,-0.01,0.00,0.01
7:52:22 PM,9.02,1.01,0.24,0.02,-0.03,0.01
7:52:22 PM,9.13,1.02,0.21,-0.01,-0.03,0.01
7:52:22 PM,9.07,1.01,0.24,0.01,-0.02,0.01
7:52:22 PM,9.06,1.00,0.21,-0.03,-0.05,0.01
7:52:22 PM,9.09,0.96,0.23,0.00,-0.01,0.01
7:52:22 PM,9.04,0.93,0.26,0.01,-0.03,0.01
7:52:22 PM,9.09,0.91,0.25,0.00,-0.06,0.01
7:52:22 PM,9.06,0.86,0.23,0.01,-0.04,0.01
7:52:22 PM,9.13,0.85,0.21,0.01,-0.03,0.01
7:52:23 PM,9.05,0.81,0.21,0.00,-0.00,0.01
7:52:23 PM,9.02,0.88,0.22,0.01,-0.01,0.01
7:52:23 PM,9.09,0.82,0.11,0.01,-0.01,0.01
7:52:23 PM,9.06,0.94,0.18,0.02,-0.01,0.01
7:52:23 PM,9.04,0.92,0.21,0.03,-0.02,0.01
7:52:23 PM,9.11,0.95,0.17,0.01,-0.01,0.01
7:52:23 PM,9.04,0.98,0.19,0.03,0.01,0.01
7:52:23 PM,9.11,1.00,0.18,0.01,0.01,0.01
7:52:23 PM,9.03,0.96,0.20,0.01,-0.01,0.01
7:52:24 PM,9.04,0.99,0.19,0.02,-0.00,0.01
