Timestamp,Accel X,Accel Y,Accel Z,Gyro X,Gyro Y,Gyro Z
8:11:49 PM,0.93,-8.73,-4.93,0.00,0.07,0.01
8:11:49 PM,0.76,-8.56,-4.84,-0.03,0.10,0.01
8:11:49 PM,0.83,-8.45,-4.87,0.07,0.25,0.01
8:11:49 PM,-0.17,-8.29,-5.20,-0.03,0.17,0.01
8:11:49 PM,0.42,-8.55,-5.60,-0.09,0.26,0.01
8:11:50 PM,0.73,-8.60,-4.41,0.02,0.05,0.01
8:11:50 PM,0.34,-8.05,-6.18,0.03,0.18,0.01
8:11:50 PM,1.30,-8.31,-4.55,-0.13,-0.03,0.01
8:11:50 PM,0.63,-8.50,-5.14,0.06,0.07,0.01
8:11:50 PM,0.74,-8.50,-5.40,-0.04,0.20,0.01
8:11:50 PM,1.42,-8.51,-4.73,0.08,-0.08,0.01
8:11:50 PM,1.08,-8.47,-5.50,-0.05,-0.09,0.01
8:11:50 PM,1.23,-8.37,-5.29,-0.09,0.05,0.01
8:11:50 PM,0.92,-8.15,-5.19,0.00,-0.01,0.01
8:11:51 PM,1.10,-8.41,-5.12,0.36,0.00,0.01
8:11:51 PM,1.08,-8.33,-5.05,0.06,-0.12,0.01
8:11:51 PM,1.45,-8.34,-5.17,-0.03,-0.16,0.01
8:11:51 PM,1.43,-8.64,-5.37,-0.14,-0.10,0.01
8:11:51 PM,1.08,-8.49,-4.83,-0.00,0.04,0.01
8:11:51 PM,1.05,-8.31,-5.32,0.07,-0.09,0.01
8:11:51 PM,1.12,-8.29,-5.51,0.06,-0.02,0.01
8:11:51 PM,1.26,-8.29,-5.72,-0.01,0.16,0.01
8:11:51 PM,1.17,-8.34,-5.27,-0.03,0.06,0.01
8:11:51 PM,1.17,-8.39,-5.48,-0.01,-0.06,0.01
8:11:52 PM,0.99,-8.56,-5.43,-0.09,-0.06,0.01
8:11:52 PM,1.42,-7.88,-5.82,-0.05,-0.07,0.01
8:11:52 PM,1.06,-8.48,-5.30,0.04,0.07,0.01
8:11:52 PM,1.32,-8.45,-5.05,0.05,-0.09,0.01
8:11:52 PM,1.05,-8.45,-5.32,0.01,-0.03,0.01
8:11:52 PM,1.07,-8.27,-5.18,0.11,-0.10,0.01
8:11:52 PM,1.37,-8.34,-5.03,0.07,-0.13,0.01
8:11:52 PM,0.77,-8.33,-5.35,0.07,0.05,0.01
8:11:52 PM,0.57,-8.43,-4.68,0.00,0.06,0.01
8:11:53 PM,0.44,-8.16,-5.66,-0.03,-0.01,0.01
8:11:53 PM,0.53,-7.99,-5.52,0.02,0.05,0.01
8:11:53 PM,0.87,-8.17,-5.55,-0.02,0.01,0.01
8:11:53 PM,0.20,-8.34,-5.62,-0.01,0.03,0.01
8:11:53 PM,1.38,-8.35,-5.56,0.05,-0.21,0.01
8:11:53 PM,1.19,-7.99,-5.86,0.01,0.00,0.01
8:11:53 PM,1.64,-8.28,-5.49,-0.06,0.11,0.01
8:11:53 PM,0.91,-8.37,-5.77,-0.06,0.08,0.01
8:11:53 PM,0.49,-8.39,-5.57,-0.01,-0.04,0.01
8:11:53 PM,1.06,-8.18,-5.71,-0.07,0.06,0.01
8:11:54 PM,0.70,-8.38,-5.56,-0.02,0.03,0.01
8:11:54 PM,1.33,-8.06,-5.77,0.03,-0.09,0.01
8:11:54 PM,1.22,-8.20,-5.45,-0.09,0.04,0.01
8:11:54 PM,0.70,-8.39,-5.30,0.17,-0.01,0.01
8:11:54 PM,1.12,-8.29,-5.58,0.05,-0.04,0.01
8:11:54 PM,1.03,-8.52,-5.40,0.00,0.10,0.01
8:11:54 PM,0.55,-8.63,-5.18,0.03,0.08,0.01
8:11:54 PM,1.22,-8.25,-5.63,0.20,-0.09,0.01
8:11:54 PM,1.13,-8.33,-4.89,-0.02,0.02,0.01
8:11:55 PM,0.66,-8.34,-5.48,-0.01,0.09,0.01
8:11:55 PM,0.78,-8.22,-5.40,0.00,0.03,0.01
8:11:55 PM,0.58,-8.60,-5.20,0.07,0.08,0.01
8:11:55 PM,1.33,-8.25,-5.28,0.04,-0.06,0.01
8:11:55 PM,0.57,-8.29,-5.23,0.01,-0.06,0.01
8:11:55 PM,0.87,-8.78,-4.92,0.02,-0.02,0.01
8:11:55 PM,1.12,-8.38,-5.79,-0.05,0.04,0.01
8:11:55 PM,0.79,-8.61,-5.32,-0.02,0.05,0.01
8:11:55 PM,1.23,-8.52,-5.32,-0.05,0.02,0.01
8:11:55 PM,0.83,-8.50,-5.37,0.05,0.09,0.01
8:11:56 PM,0.80,-8.33,-5.32,0.01,0.02,0.01
8:11:56 PM,0.78,-8.53,-5.24,0.00,-0.03,0.01
8:11:56 PM,1.00,-8.73,-5.04,-0.02,0.05,0.01
8:11:56 PM,0.97,-8.43,-5.27,0.08,-0.00,0.01
8:11:56 PM,0.68,-8.56,-5.06,-0.03,-0.11,0.01
8:11:56 PM,0.83,-8.72,-5.14,0.04,-0.04,0.01
8:11:56 PM,1.26,-8.62,-5.21,-0.01,-0.05,0.01
8:11:56 PM,0.72,-8.44,-5.45,-0.06,-0.03,0.01
8:11:56 PM,0.69,-8.54,-5.53,-0.03,0.08,0.01
8:11:57 PM,0.84,-8.26,-5.67,0.06,-0.07,0.01
8:11:57 PM,0.87,-8.31,-5.46,-0.03,0.01,0.01
8:11:57 PM,1.18,-8.68,-5.23,-0.02,0.05,0.01
8:11:57 PM,0.74,-8.35,-5.25,0.09,0.01,0.01
8:11:57 PM,1.69,-8.30,-5.46,-0.02,-0.05,0.01
8:11:57 PM,0.58,-8.54,-5.18,0.07,-0.01,0.01
8:11:57 PM,1.07,-8.59,-4.98,-0.01,0.03,0.01
8:11:57 PM,0.78,-8.36,-5.29,0.06,-0.01,0.01
8:11:57 PM,0.76,-8.13,-5.23,0.05,-0.14,0.01
8:11:57 PM,0.80,-8.56,-5.23,0.02,-0.07,0.01
8:11:58 PM,0.87,-8.35,-5.71,-0.03,0.01,0.01
8:11:58 PM,0.68,-8.66,-5.64,-0.05,0.17,0.01
8:11:58 PM,1.19,-8.32,-5.33,0.10,0.04,0.01
8:11:58 PM,1.17,-8.24,-5.78,-0.04,-0.13,0.01
8:11:58 PM,2.01,-8.74,-5.15,-0.05,-0.28,0.01
8:11:58 PM,0.43,-8.16,-5.30,0.02,0.17,0.01
8:11:58 PM,0.63,-8.35,-5.77,-0.00,0.08,0.01
8:11:58 PM,0.90,-8.20,-5.73,-0.04,-0.23,0.01
8:11:58 PM,1.97,-8.46,-5.69,-0.02,-0.26,0.01
8:11:59 PM,-0.21,-8.13,-5.62,0.03,0.10,0.01
8:11:59 PM,0.17,-8.38,-5.80,0.07,0.02,0.01
8:11:59 PM,1.22,-8.28,-5.62,0.08,-0.11,0.01
8:11:59 PM,0.71,-8.12,-5.19,0.17,-0.24,0.01
8:11:59 PM,0.12,-8.63,-5.37,-0.04,0.01,0.01
8:11:59 PM,0.78,-8.76,-5.32,0.10,-0.17,0.01
8:11:59 PM,0.12,-8.48,-5.31,0.02,-0.15,0.01
8:11:59 PM,0.32,-8.43,-5.29,0.04,-0.22,0.01
8:11:59 PM,-0.11,-8.67,-5.45,0.09,-0.04,0.01
8:11:59 PM,0.90,-8.46,-5.32,0.15,-0.10,0.01
8:12:00 PM,0.45,-8.22,-4.88,0.16,-0.22,0.01
8:12:00 PM,0.35,-8.66,-5.60,-0.03,0.05,0.01
8:12:00 PM,1.25,-8.46,-5.61,0.00,-0.05,0.01
8:12:00 PM,0.22,-8.45,-5.26,0.03,0.01,0.01
8:12:00 PM,0.41,-8.43,-5.31,-0.03,-0.10,0.01
8:12:00 PM,-0.01,-8.63,-5.18,0.02,-0.03,0.01
8:12:00 PM,0.33,-8.55,-5.47,0.01,0.05,0.01
8:12:00 PM,-0.15,-8.32,-5.28,0.09,-0.08,0.01
8:12:00 PM,0.42,-8.36,-5.66,-0.00,-0.04,0.01
8:12:01 PM,0.37,-8.31,-5.85,-0.05,0.05,0.01
8:12:01 PM,0.70,-8.45,-5.30,0.06,-0.09,0.01
8:12:01 PM,0.86,-8.60,-5.33,-0.00,0.05,0.01
8:12:01 PM,0.04,-8.49,-5.09,0.13,-0.14,0.01
8:12:01 PM,0.90,-8.61,-5.32,-0.05,0.01,0.01
8:12:01 PM,0.19,-8.59,-5.53,-0.04,-0.15,0.01
8:12:01 PM,0.53,-8.84,-5.23,-0.03,-0.02,0.01
8:12:01 PM,0.69,-8.54,-5.21,0.10,-0.02,0.01
8:12:01 PM,1.20,-7.95,-4.17,-0.30,-0.07,0.01
8:12:01 PM,0.36,-8.47,-5.52,-0.12,0.06,0.01
8:12:02 PM,0.38,-8.59,-5.64,0.01,-0.06,0.01
8:12:02 PM,1.36,-8.28,-5.66,0.01,-0.03,0.01
8:12:02 PM,0.69,-8.48,-5.06,0.05,-0.10,0.01
8:12:02 PM,0.65,-8.35,-5.39,0.03,-0.05,0.01
8:12:02 PM,0.57,-8.53,-5.14,-0.02,0.06,0.01
8:12:02 PM,0.91,-8.42,-5.48,-0.02,-0.02,0.01
8:12:02 PM,0.73,-8.37,-5.66,0.01,-0.07,0.01
8:12:02 PM,0.77,-8.40,-5.51,-0.03,0.01,0.01
8:12:02 PM,0.45,-8.45,-5.57,-0.08,-0.08,0.01
8:12:03 PM,0.95,-8.32,-5.71,0.06,-0.11,0.01
8:12:03 PM,0.70,-8.23,-5.42,0.04,-0.05,0.01
8:12:03 PM,0.41,-8.28,-5.29,0.06,-0.14,0.01
8:12:03 PM,0.92,-8.56,-5.37,-0.00,-0.14,0.01
8:12:03 PM,0.88,-8.27,-5.80,-0.00,0.04,0.01
8:12:03 PM,0.46,-8.26,-5.70,-0.07,0.03,0.01
8:12:03 PM,0.57,-8.52,-5.57,-0.05,0.09,0.01
8:12:03 PM,1.31,-8.43,-5.50,0.04,0.01,0.01
8:12:03 PM,0.39,-8.35,-5.28,0.05,-0.01,0.01
8:12:04 PM,0.72,-8.18,-5.73,-0.01,-0.02,0.01
8:12:04 PM,0.51,-8.65,-4.89,0.26,0.01,0.01
8:12:04 PM,0.83,-8.48,-5.36,-0.07,-0.06,0.01
8:12:04 PM,0.33,-8.53,-5.38,-0.02,0.03,0.01
8:12:04 PM,0.78,-8.08,-5.92,0.03,-0.11,0.01
8:12:04 PM,0.96,-8.26,-5.66,0.00,0.07,0.01
8:12:04 PM,0.54,-8.39,-5.44,0.06,-0.01,0.01
8:12:04 PM,0.87,-8.27,-5.40,0.07,-0.17,0.01
8:12:04 PM,0.89,-8.35,-5.39,0.02,0.23,0.01
8:12:04 PM,0.53,-8.60,-5.40,-0.04,0.01,0.01
8:12:05 PM,0.74,-8.08,-5.87,-0.03,0.05,0.01
8:12:05 PM,0.84,-8.24,-5.74,-0.01,0.16,0.01
8:12:05 PM,0.78,-8.60,-5.85,-0.04,0.01,0.01
8:12:05 PM,0.70,-8.24,-5.73,0.06,0.02,0.01
8:12:05 PM,0.88,-8.26,-5.35,0.00,-0.13,0.01
8:12:05 PM,0.70,-8.22,-5.63,-0.01,0.06,0.01
8:12:05 PM,0.53,-8.37,-5.78,-0.00,-0.06,0.01
8:12:05 PM,1.06,-8.04,-6.06,-0.02,-0.02,0.01
8:12:05 PM,0.58,-8.24,-5.73,0.02,-0.02,0.01
8:12:06 PM,0.52,-8.28,-5.74,-0.01,0.11,0.01
8:12:06 PM,1.52,-8.19,-5.89,0.01,-0.17,0.01
8:12:06 PM,0.57,-8.15,-6.02,-0.01,0.07,0.01
8:12:06 PM,0.79,-8.36,-5.69,-0.02,0.05,0.01
8:12:06 PM,1.11,-8.57,-5.00,0.06,-0.10,0.01
8:12:06 PM,0.94,-8.33,-5.70,0.03,-0.01,0.01
8:12:06 PM,0.60,-8.20,-5.75,-0.03,0.08,0.01
8:12:06 PM,0.85,-8.12,-5.77,-0.03,-0.24,0.01
8:12:06 PM,0.55,-8.26,-5.52,0.07,0.12,0.01
8:12:06 PM,-0.63,-8.01,-6.66,-0.02,-0.42,0.01
8:12:07 PM,1.44,-8.21,-5.64,-0.03,-0.01,0.01
8:12:07 PM,1.08,-8.15,-5.57,-0.08,-0.00,0.01
8:12:07 PM,-0.13,-8.37,-5.96,-0.07,0.13,0.01
8:12:07 PM,0.27,-8.37,-6.07,0.03,-0.07,0.01
8:12:07 PM,1.12,-8.13,-5.76,0.06,-0.00,0.01
8:12:07 PM,0.60,-8.44,-5.31,0.01,0.15,0.01
8:12:07 PM,0.46,-8.32,-5.26,0.04,0.01,0.01
8:12:07 PM,0.81,-8.20,-6.02,-0.02,-0.10,0.01
8:12:07 PM,0.85,-8.24,-6.02,-0.03,-0.01,0.01
8:12:08 PM,0.56,-8.14,-6.01,0.04,-0.01,0.01
8:12:08 PM,1.35,-8.15,-5.65,0.08,0.01,0.01
8:12:08 PM,0.86,-8.03,-5.50,-0.01,-0.03,0.01
8:12:08 PM,0.84,-8.28,-5.86,-0.03,0.16,0.01
8:12:08 PM,0.36,-8.09,-6.15,-0.03,-0.02,0.01
8:12:08 PM,0.96,-8.10,-6.23,-0.09,-0.03,0.01
8:12:08 PM,0.60,-8.01,-6.31,0.04,-0.02,0.01
8:12:08 PM,1.33,-7.94,-5.78,0.06,-0.10,0.01
8:12:08 PM,0.87,-7.98,-5.29,0.09,-0.12,0.01
8:12:08 PM,0.98,-8.09,-5.96,0.01,-0.09,0.01
8:12:09 PM,1.23,-8.37,-5.95,-0.00,-0.09,0.01
8:12:09 PM,0.78,-8.10,-6.05,0.01,0.03,0.01
8:12:09 PM,0.78,-7.96,-6.28,0.03,0.05,0.01
8:12:09 PM,0.81,-7.94,-5.71,0.07,-0.03,0.01
8:12:09 PM,1.67,-7.97,-5.83,0.02,-0.07,0.01
8:12:09 PM,0.67,-7.98,-5.92,0.05,0.11,0.01
8:12:09 PM,1.26,-8.15,-5.74,-0.01,-0.06,0.01
8:12:09 PM,0.74,-8.12,-5.95,0.06,0.01,0.01
8:12:09 PM,1.11,-8.17,-5.62,0.05,-0.04,0.01
8:12:10 PM,0.80,-7.92,-5.64,0.08,-0.07,0.01
8:12:10 PM,0.86,-7.78,-6.07,0.03,0.06,0.01
8:12:10 PM,0.91,-8.15,-5.86,0.01,-0.12,0.01
8:12:10 PM,0.76,-8.37,-5.82,0.00,0.02,0.01
8:12:10 PM,1.46,-8.25,-5.98,-0.06,-0.16,0.01
8:12:10 PM,0.87,-8.12,-5.52,0.09,-0.19,0.01
8:12:10 PM,0.78,-8.08,-5.95,-0.03,0.11,0.01
8:12:10 PM,0.74,-8.13,-5.93,-0.01,-0.10,0.01
8:12:10 PM,1.38,-8.19,-5.82,-0.00,-0.06,0.01
8:12:10 PM,0.33,-7.99,-6.18,-0.01,-0.14,0.01
8:12:11 PM,0.79,-8.25,-5.78,0.00,0.10,0.01
8:12:11 PM,0.73,-8.09,-6.04,-0.01,-0.02,0.01
8:12:11 PM,1.05,-8.14,-6.15,-0.02,-0.04,0.01
8:12:11 PM,0.94,-8.19,-6.00,0.03,-0.04,0.01
8:12:11 PM,1.19,-8.16,-6.08,-0.03,0.02,0.01
8:12:11 PM,0.94,-8.11,-6.08,0.03,-0.09,0.01
8:12:11 PM,0.83,-8.03,-6.09,0.00,-0.05,0.01
8:12:11 PM,1.05,-8.08,-5.85,-0.01,0.12,0.01
8:12:11 PM,0.78,-8.24,-5.73,-0.00,-0.03,0.01
8:12:12 PM,1.28,-8.21,-5.73,0.03,0.02,0.01
8:12:12 PM,0.68,-8.26,-6.06,-0.04,0.11,0.01
8:12:12 PM,1.00,-8.23,-6.05,-0.08,-0.00,0.01
8:12:12 PM,0.62,-8.23,-6.42,-0.07,0.08,0.01
8:12:12 PM,0.85,-8.09,-5.91,0.04,0.05,0.01
8:12:12 PM,0.79,-8.08,-5.76,0.06,-0.04,0.01
8:12:12 PM,0.99,-8.08,-6.04,-0.01,0.13,0.01
8:12:12 PM,1.07,-8.12,-6.14,-0.05,0.04,0.01
8:12:12 PM,1.10,-8.36,-5.95,-0.01,0.00,0.01
8:12:12 PM,0.82,-8.20,-5.78,0.01,0.00,0.01
8:12:13 PM,0.91,-8.12,-5.76,0.03,-0.06,0.01
8:12:13 PM,1.11,-8.04,-5.99,0.01,-0.04,0.01
8:12:13 PM,0.86,-8.22,-5.96,0.01,-0.01,0.01
8:12:13 PM,0.96,-8.14,-5.73,0.05,-0.07,0.01
8:12:13 PM,1.12,-8.00,-5.88,0.02,0.05,0.01
8:12:13 PM,1.24,-8.16,-5.71,0.05,0.02,0.01
8:12:13 PM,1.14,-8.23,-5.67,0.01,-0.03,0.01
8:12:13 PM,0.88,-8.15,-6.14,-0.06,0.06,0.01
8:12:13 PM,0.50,-8.10,-6.27,-0.05,0.07,0.01
8:12:14 PM,0.81,-8.09,-6.14,-0.04,0.01,0.01
8:12:14 PM,0.91,-8.12,-6.18,-0.02,-0.02,0.01
8:12:14 PM,0.64,-8.10,-6.03,-0.02,0.04,0.01
8:12:14 PM,1.05,-8.24,-5.98,0.05,-0.04,0.01
8:12:14 PM,0.93,-8.31,-6.03,-0.04,-0.01,0.01
8:12:14 PM,1.00,-8.17,-5.97,0.04,-0.08,0.01
8:12:14 PM,1.08,-7.73,-6.29,0.04,-0.06,0.01
8:12:14 PM,1.20,-8.10,-5.76,0.05,-0.03,0.01
8:12:14 PM,1.05,-8.28,-5.70,0.00,0.09,0.01
8:12:15 PM,0.49,-8.27,-6.01,-0.04,-0.03,0.01
8:12:15 PM,1.10,-8.32,-6.08,-0.02,0.12,0.01
8:12:15 PM,1.38,-8.16,-6.00,-0.03,0.02,0.01
8:12:15 PM,1.67,-8.03,-5.89,0.05,-0.22,0.01
8:12:15 PM,0.90,-8.21,-5.39,0.09,-0.01,0.01
8:12:15 PM,0.91,-8.02,-5.76,0.09,-0.10,0.01
8:12:15 PM,1.10,-8.31,-6.22,-0.01,0.11,0.01
8:12:15 PM,1.02,-8.13,-5.93,0.03,-0.02,0.01
8:12:15 PM,0.54,-8.05,-5.87,-0.00,0.14,0.01
8:12:15 PM,1.12,-8.24,-5.62,0.03,0.03,0.01
8:12:16 PM,0.80,-8.25,-5.90,-0.03,0.05,0.01
8:12:16 PM,0.87,-8.13,-6.24,-0.01,0.07,0.01
8:12:16 PM,0.89,-8.58,-5.47,0.11,-0.13,0.01
8:12:16 PM,1.29,-8.30,-5.58,0.02,-0.09,0.01
8:12:16 PM,0.83,-8.19,-6.21,-0.03,-0.05,0.01
8:12:16 PM,1.10,-7.98,-6.11,0.09,-0.09,0.01
8:12:16 PM,1.17,-7.80,-6.28,0.08,0.01,0.01
8:12:16 PM,1.30,-7.94,-5.99,0.06,-0.09,0.01
8:12:16 PM,1.24,-7.94,-6.29,0.04,-0.03,0.01
8:12:17 PM,1.19,-8.00,-5.96,0.05,-0.07,0.01
8:12:17 PM,1.29,-7.77,-6.28,0.02,-0.05,0.01
8:12:17 PM,1.01,-7.85,-6.04,0.01,-0.06,0.01
8:12:17 PM,0.76,-7.91,-6.22,-0.07,0.01,0.01
8:12:17 PM,0.63,-8.18,-6.12,-0.05,-0.11,0.01
8:12:17 PM,1.02,-8.09,-6.06,0.04,-0.04,0.01
8:12:17 PM,1.21,-7.98,-6.04,0.06,-0.01,0.01
8:12:17 PM,0.43,-8.03,-6.16,0.12,0.06,0.01
8:12:17 PM,1.49,-8.58,-5.12,-0.05,-0.29,0.01
8:12:17 PM,1.40,-8.09,-6.49,0.04,-0.15,0.01
8:12:18 PM,0.55,-8.18,-5.65,0.06,0.08,0.01
8:12:18 PM,1.12,-8.27,-5.96,0.02,-0.13,0.01
8:12:18 PM,1.11,-8.05,-6.06,0.01,0.03,0.01
8:12:18 PM,0.89,-8.02,-5.82,0.10,-0.09,0.01
8:12:18 PM,1.00,-7.97,-5.69,0.03,-0.05,0.01
8:12:18 PM,1.11,-8.09,-6.02,0.00,-0.10,0.01
8:12:18 PM,1.33,-7.92,-6.17,0.01,0.01,0.01
8:12:18 PM,1.06,-8.05,-6.12,-0.02,-0.07,0.01
8:12:18 PM,0.79,-8.40,-5.86,-0.07,0.05,0.01
8:12:19 PM,0.92,-8.39,-6.06,-0.02,0.06,0.01
8:12:19 PM,1.01,-8.22,-5.97,0.05,0.08,0.01
8:12:19 PM,1.22,-8.19,-5.67,0.04,-0.05,0.01
8:12:19 PM,1.23,-8.18,-5.51,0.08,-0.05,0.01
8:12:19 PM,1.04,-8.18,-5.84,-0.03,0.08,0.01
8:12:19 PM,0.84,-8.37,-6.17,-0.05,-0.02,0.01
8:12:19 PM,0.97,-8.09,-6.11,0.01,0.00,0.01
8:12:19 PM,1.24,-7.97,-6.00,0.06,0.03,0.01
8:12:19 PM,1.08,-7.72,-5.96,0.02,0.07,0.01
8:12:19 PM,1.56,-7.93,-5.91,-0.03,0.03,0.01
8:12:20 PM,0.70,-8.15,-6.39,-0.08,0.10,0.01
8:12:20 PM,1.23,-8.07,-6.22,-0.03,0.02,0.01
8:12:20 PM,1.46,-8.13,-5.93,0.05,0.16,0.01
8:12:20 PM,0.77,-8.03,-5.74,0.05,-0.02,0.01
8:12:20 PM,0.68,-7.78,-6.11,0.00,-0.07,0.01
8:12:20 PM,0.84,-8.23,-6.34,-0.02,0.18,0.01
8:12:20 PM,1.05,-7.91,-6.22,0.06,-0.16,0.01
8:12:20 PM,1.37,-8.04,-5.79,0.04,0.00,0.01
8:12:20 PM,0.88,-8.06,-5.75,0.07,-0.03,0.01
8:12:21 PM,1.04,-8.35,-5.67,-0.02,-0.07,0.01
8:12:21 PM,0.57,-8.35,-5.96,0.03,0.13,0.01
8:12:21 PM,1.19,-8.44,-5.88,-0.02,-0.03,0.01
8:12:21 PM,0.77,-7.81,-6.11,0.05,-0.09,0.01
8:12:21 PM,1.41,-7.87,-5.89,0.06,-0.03,0.01
8:12:21 PM,0.58,-8.04,-6.21,-0.01,-0.04,0.01
8:12:21 PM,1.28,-8.18,-5.84,-0.02,-0.10,0.01
8:12:21 PM,0.93,-8.28,-5.60,-0.01,-0.00,0.01
8:12:21 PM,1.03,-8.03,-5.91,-0.02,-0.07,0.01
8:12:21 PM,1.47,-8.06,-6.13,0.02,-0.07,0.01
8:12:22 PM,1.53,-8.03,-5.97,0.02,-0.01,0.01
8:12:22 PM,1.01,-8.02,-6.15,-0.07,-0.02,0.01
8:12:22 PM,1.20,-8.04,-6.15,-0.04,-0.03,0.01
8:12:22 PM,1.04,-7.97,-5.94,0.00,0.01,0.01
8:12:22 PM,1.56,-8.09,-6.29,-0.10,0.12,0.01
8:12:22 PM,1.18,-7.76,-6.35,0.02,-0.01,0.01
8:12:22 PM,0.92,-7.93,-6.11,0.05,-0.06,0.01
8:12:22 PM,1.02,-8.04,-6.11,-0.04,0.09,0.01
8:12:22 PM,1.24,-8.06,-5.85,0.04,0.01,0.01
8:12:23 PM,1.12,-7.86,-6.00,0.00,-0.02,0.01
8:12:23 PM,1.22,-8.16,-6.05,-0.04,0.04,0.01
8:12:23 PM,1.21,-8.21,-5.79,0.05,-0.01,0.01
8:12:23 PM,1.03,-8.02,-6.26,0.01,-0.03,0.01
8:12:23 PM,0.98,-8.18,-6.34,-0.02,-0.05,0.01
8:12:23 PM,1.09,-8.10,-6.08,-0.00,0.00,0.01
8:12:23 PM,1.16,-7.82,-6.21,-0.02,0.02,0.01
8:12:23 PM,1.09,-8.21,-5.73,-0.01,-0.15,0.01
8:12:23 PM,1.38,-8.30,-5.49,0.05,-0.02,0.01
8:12:23 PM,1.02,-7.83,-6.00,0.00,-0.16,0.01
8:12:24 PM,1.16,-8.18,-6.05,0.05,0.04,0.01
8:12:24 PM,1.17,-8.22,-5.47,0.03,0.05,0.01
8:12:24 PM,0.66,-8.34,-5.69,0.74,-0.09,0.01
8:12:24 PM,1.30,-8.02,-5.11,0.68,0.08,0.01
8:12:24 PM,-0.20,-9.14,-5.35,1.37,0.40,0.02
8:12:24 PM,0.67,-8.44,-3.80,0.10,0.06,0.01
8:12:24 PM,-0.28,-9.50,-4.67,-0.21,0.41,0.01
8:12:24 PM,0.70,-8.75,-3.23,0.01,0.06,0.01
8:12:24 PM,0.58,-9.53,-3.72,0.10,0.03,0.01
8:12:25 PM,0.93,-9.11,-3.67,-0.11,0.14,0.01
8:12:25 PM,0.84,-8.97,-4.24,0.04,0.02,0.01
8:12:25 PM,0.86,-8.74,-4.08,0.04,0.21,0.01
8:12:25 PM,0.44,-8.74,-4.83,-0.02,0.24,0.01
8:12:25 PM,1.05,-8.85,-4.83,-0.09,0.00,0.01
8:12:25 PM,0.54,-8.75,-4.46,-0.03,0.09,0.01
8:12:25 PM,0.71,-8.71,-4.37,0.02,-0.05,0.01
8:12:25 PM,0.55,-8.59,-4.76,-0.12,0.07,0.01
8:12:25 PM,1.05,-8.55,-4.59,-0.04,0.05,0.01
8:12:25 PM,0.67,-8.59,-4.59,-0.17,-0.03,0.01
8:12:26 PM,0.71,-8.82,-4.79,-0.03,-0.06,0.01
8:12:26 PM,0.93,-8.69,-4.89,-0.03,-0.01,0.01
8:12:26 PM,0.84,-8.73,-4.68,0.05,-0.06,0.01
8:12:26 PM,0.48,-8.62,-4.57,0.07,0.05,0.01
8:12:26 PM,1.23,-8.65,-4.43,0.02,-0.05,0.01
8:12:26 PM,1.39,-8.64,-5.06,-0.01,0.05,0.01
8:12:26 PM,0.69,-8.66,-4.86,-0.04,0.04,0.01
8:12:26 PM,0.79,-8.72,-4.70,-0.06,-0.05,0.01
8:12:26 PM,1.19,-8.80,-4.62,-0.01,0.06,0.01
8:12:27 PM,0.80,-8.82,-4.64,-0.01,0.02,0.01
8:12:27 PM,1.14,-8.56,-4.73,0.03,-0.05,0.01
8:12:27 PM,0.36,-8.76,-4.84,-0.02,0.05,0.01
8:12:27 PM,1.07,-9.04,-4.66,-0.02,-0.05,0.01
8:12:27 PM,0.72,-8.58,-4.57,0.07,-0.05,0.01
8:12:27 PM,0.98,-8.58,-4.75,0.01,-0.12,0.01
8:12:27 PM,1.23,-8.68,-4.55,0.05,-0.12,0.01
8:12:27 PM,1.13,-8.40,-4.87,0.05,-0.14,0.01
8:12:27 PM,0.93,-8.49,-4.73,0.03,-0.08,0.01
8:12:28 PM,1.11,-8.58,-4.88,-0.01,-0.09,0.01
8:12:28 PM,0.81,-8.52,-4.60,0.01,0.01,0.01
8:12:28 PM,0.76,-8.69,-4.90,0.00,0.02,0.01
8:12:28 PM,0.53,-8.77,-4.97,0.05,-0.01,0.01
8:12:28 PM,1.27,-8.50,-5.05,0.01,-0.02,0.01
8:12:28 PM,1.11,-8.46,-4.94,-0.06,-0.04,0.01
8:12:28 PM,0.79,-8.48,-4.69,0.06,-0.02,0.01
8:12:28 PM,0.76,-8.43,-4.92,0.01,-0.02,0.01
8:12:28 PM,1.04,-8.48,-4.95,0.03,-0.03,0.01
8:12:28 PM,0.80,-8.56,-4.96,-0.01,0.01,0.01
8:12:29 PM,0.97,-8.60,-5.04,0.02,0.00,0.01
8:12:29 PM,0.96,-8.86,-4.50,-0.25,0.02,0.01
8:12:29 PM,0.38,-8.59,-4.92,0.05,-0.14,0.01
8:12:29 PM,1.19,-8.67,-5.29,-0.06,-0.01,0.01
8:12:29 PM,0.72,-8.63,-5.32,-0.05,-0.04,0.01
8:12:29 PM,0.86,-8.78,-4.64,0.03,0.12,0.01
8:12:29 PM,0.79,-8.42,-5.07,0.00,-0.15,0.01
8:12:29 PM,1.20,-8.50,-4.87,-0.02,-0.09,0.01
8:12:29 PM,0.68,-8.85,-4.83,0.00,-0.05,0.01
8:12:30 PM,1.34,-8.57,-4.92,0.06,-0.09,0.01
8:12:30 PM,1.11,-8.56,-4.78,0.02,-0.06,0.01
8:12:30 PM,0.97,-8.53,-5.04,0.01,-0.05,0.01
8:12:30 PM,0.95,-8.49,-5.32,0.00,-0.09,0.01
8:12:30 PM,1.02,-8.63,-5.14,-0.01,-0.03,0.01
8:12:30 PM,1.23,-8.73,-4.78,0.01,-0.19,0.01
8:12:30 PM,1.45,-8.83,-4.96,-0.06,-0.07,0.01
8:12:30 PM,1.27,-8.71,-5.03,-0.03,-0.09,0.01
8:12:30 PM,0.64,-8.58,-5.16,-0.03,0.02,0.01
8:12:30 PM,0.85,-8.60,-4.78,0.05,-0.07,0.01
8:12:31 PM,0.84,-8.68,-5.31,-0.09,-0.01,0.01
8:12:31 PM,1.11,-8.94,-4.44,0.15,-0.02,0.01
8:12:31 PM,1.12,-8.55,-4.88,0.14,-0.01,0.01
8:12:31 PM,1.01,-8.43,-5.02,-0.13,-0.03,0.01
8:12:31 PM,0.81,-8.76,-5.00,-0.10,-0.02,0.01
8:12:31 PM,0.63,-8.72,-4.97,0.05,-0.09,0.01
8:12:31 PM,0.80,-8.76,-4.67,-0.05,0.00,0.01
8:12:31 PM,0.71,-8.64,-4.77,-0.04,-0.09,0.01
8:12:31 PM,0.07,-8.70,-5.32,-0.36,0.16,0.01
8:12:32 PM,0.83,-8.38,-4.89,-0.05,-0.14,0.01
8:12:32 PM,-0.10,-8.34,-5.64,-0.04,0.11,0.01
8:12:32 PM,0.52,-8.48,-5.60,0.01,-0.05,0.01
8:12:32 PM,0.66,-8.57,-5.10,0.03,0.07,0.01
8:12:32 PM,0.71,-8.40,-4.87,0.07,-0.11,0.01
8:12:32 PM,0.64,-8.30,-5.18,-0.03,0.01,0.01
8:12:32 PM,0.44,-8.60,-5.31,-0.03,0.04,0.01
8:12:32 PM,0.93,-8.77,-4.98,0.07,0.05,0.01
8:12:32 PM,0.45,-8.48,-5.28,0.01,0.01,0.01
8:12:32 PM,1.21,-8.40,-5.12,0.04,0.14,0.01
8:12:33 PM,0.66,-8.34,-5.39,-0.01,-0.04,0.01
8:12:33 PM,1.12,-8.62,-5.07,-0.02,-0.08,0.01
8:12:33 PM,0.63,-8.51,-5.51,0.00,0.04,0.01
8:12:33 PM,0.54,-8.59,-5.63,-0.08,0.04,0.01
8:12:33 PM,0.45,-8.59,-5.33,0.02,-0.00,0.01
8:12:33 PM,0.39,-8.41,-5.04,0.06,0.00,0.01
8:12:33 PM,0.88,-8.40,-5.16,0.03,-0.02,0.01
8:12:33 PM,0.81,-8.46,-5.03,0.04,-0.08,0.01
8:12:33 PM,1.42,-8.60,-4.94,0.04,-0.23,0.01
8:12:34 PM,0.62,-8.53,-5.30,0.05,-0.02,0.01
8:12:34 PM,0.87,-8.56,-5.15,-0.01,0.02,0.01
8:12:34 PM,1.11,-8.56,-5.14,0.00,0.01,0.01
8:12:34 PM,0.77,-8.57,-5.22,-0.00,-0.11,0.01
8:12:34 PM,0.42,-8.60,-5.32,0.01,0.03,0.01
8:12:34 PM,0.74,-8.55,-5.28,0.03,0.06,0.01
8:12:34 PM,0.39,-8.38,-5.32,-0.04,0.04,0.01
8:12:34 PM,0.61,-8.22,-5.64,0.03,-0.04,0.01
8:12:34 PM,0.77,-8.47,-5.13,0.01,-0.01,0.01
8:12:34 PM,0.50,-8.44,-5.53,-0.02,-0.10,0.01
8:12:35 PM,0.68,-8.70,-5.26,-0.02,0.06,0.01
8:12:35 PM,0.63,-8.48,-5.56,0.06,-0.11,0.01
8:12:35 PM,0.96,-8.47,-5.23,0.03,0.10,0.01
8:12:35 PM,1.02,-8.35,-5.00,0.02,-0.09,0.01
8:12:35 PM,0.93,-8.48,-5.08,0.03,0.00,0.01
8:12:35 PM,0.81,-8.55,-5.21,0.01,-0.01,0.01
8:12:35 PM,0.69,-8.54,-5.35,-0.03,0.00,0.01
8:12:35 PM,0.55,-8.71,-5.59,-0.02,-0.03,0.01
8:12:35 PM,1.01,-8.56,-5.35,0.00,-0.07,0.01
8:12:36 PM,0.23,-8.57,-5.35,-0.06,-0.00,0.01
8:12:36 PM,0.59,-8.58,-5.14,0.02,-0.03,0.01
8:12:36 PM,0.59,-8.55,-5.26,0.01,0.02,0.01
8:12:36 PM,0.84,-8.40,-5.54,-0.03,0.04,0.01
8:12:36 PM,0.52,-8.61,-5.30,-0.01,-0.02,0.01
8:12:36 PM,0.72,-8.53,-5.29,0.03,0.01,0.01
8:12:36 PM,0.76,-8.35,-5.26,0.02,0.03,0.01
8:12:36 PM,0.81,-8.25,-5.49,0.04,-0.01,0.01
8:12:36 PM,0.88,-8.30,-5.37,-0.01,-0.08,0.01
8:12:36 PM,0.69,-8.41,-5.44,-0.00,-0.01,0.01
8:12:37 PM,1.15,-8.52,-5.38,0.00,-0.09,0.01
8:12:37 PM,0.55,-8.54,-5.36,0.03,0.08,0.01
8:12:37 PM,0.73,-8.42,-5.41,-0.02,-0.06,0.01
8:12:37 PM,0.83,-8.54,-5.13,0.06,-0.01,0.01
8:12:37 PM,0.54,-8.46,-5.08,-0.01,0.08,0.01
8:12:37 PM,0.75,-8.59,-5.33,0.01,-0.01,0.01
8:12:37 PM,0.35,-8.37,-5.40,0.02,0.01,0.01
8:12:37 PM,0.55,-8.59,-5.41,-0.00,0.02,0.01
8:12:37 PM,0.61,-8.25,-5.43,0.02,-0.10,0.01
8:12:38 PM,0.98,-8.39,-5.44,-0.01,0.03,0.01
8:12:38 PM,0.99,-8.49,-5.39,-0.02,-0.05,0.01
8:12:38 PM,1.42,-8.50,-4.98,0.02,-0.04,0.01
8:12:38 PM,0.70,-8.48,-5.17,0.02,0.06,0.01
8:12:38 PM,0.90,-8.65,-5.11,0.03,-0.24,0.01
8:12:38 PM,-0.44,-8.71,-5.09,-0.17,-0.32,0.01
8:12:38 PM,0.58,-8.77,-5.08,0.05,0.05,0.01
8:12:38 PM,0.57,-8.52,-5.81,0.02,0.10,0.01
8:12:38 PM,0.92,-8.56,-5.50,-0.02,-0.05,0.01
8:12:39 PM,0.91,-8.43,-5.36,-0.01,0.00,0.01
8:12:39 PM,0.97,-8.31,-5.14,0.02,-0.15,0.01
8:12:39 PM,0.72,-8.35,-5.13,0.03,0.07,0.01
8:12:39 PM,0.52,-8.45,-5.61,-0.08,-0.01,0.01
8:12:39 PM,1.04,-8.44,-5.45,-0.01,-0.02,0.01
8:12:39 PM,0.51,-8.26,-5.75,-0.07,-0.07,0.01
8:12:39 PM,0.98,-8.39,-5.51,0.05,-0.10,0.01
8:12:39 PM,0.95,-8.17,-5.05,0.11,0.05,0.01
8:12:39 PM,0.80,-8.33,-5.10,0.03,-0.03,0.01
8:12:39 PM,0.44,-8.72,-5.03,0.04,0.03,0.01
8:12:40 PM,1.17,-8.52,-5.44,0.00,-0.08,0.01
8:12:40 PM,0.59,-8.53,-5.53,0.02,-0.06,0.01
8:12:40 PM,0.74,-8.35,-5.54,0.01,0.04,0.01
8:12:40 PM,0.85,-8.43,-5.51,-0.02,0.06,0.01
8:12:40 PM,0.72,-8.51,-5.24,-0.02,-0.01,0.01
8:12:40 PM,0.99,-8.37,-5.19,0.03,-0.01,0.01
8:12:40 PM,0.93,-8.34,-5.35,0.03,0.03,0.01
8:12:40 PM,0.83,-8.28,-5.50,0.04,-0.05,0.01
8:12:40 PM,0.73,-8.46,-5.49,-0.01,-0.00,0.01
8:12:41 PM,0.97,-8.43,-5.53,0.03,-0.07,0.01
8:12:41 PM,0.88,-8.37,-5.59,-0.03,0.10,0.01
8:12:41 PM,0.46,-8.24,-5.61,0.01,0.04,0.01
8:12:41 PM,0.65,-8.40,-5.46,0.00,0.01,0.01
8:12:41 PM,1.06,-8.17,-5.75,0.23,0.01,0.01
8:12:41 PM,1.23,-8.13,-5.73,0.00,-0.06,0.01
8:12:41 PM,1.04,-8.21,-5.45,0.05,-0.09,0.01
8:12:41 PM,0.82,-8.34,-5.51,-0.02,-0.04,0.01
8:12:41 PM,1.55,-8.32,-5.47,0.06,-0.03,0.01
8:12:41 PM,1.06,-8.29,-5.80,0.01,-0.04,0.01
8:12:42 PM,0.78,-8.35,-5.72,0.01,0.04,0.01
8:12:42 PM,1.03,-8.11,-5.65,0.05,-0.05,0.01
8:12:42 PM,1.29,-8.21,-5.44,0.04,-0.08,0.01
8:12:42 PM,1.13,-8.31,-5.42,0.06,0.11,0.01
8:12:42 PM,0.31,-8.17,-5.69,0.03,-0.18,0.01
8:12:42 PM,1.38,-8.15,-5.47,0.02,-0.06,0.01
8:12:42 PM,1.03,-8.26,-5.81,-0.07,-0.04,0.01
8:12:42 PM,0.12,-8.65,-5.54,0.13,0.04,0.01
8:12:42 PM,0.83,-8.49,-5.41,0.04,-0.02,0.01
8:12:43 PM,0.88,-8.34,-5.63,-0.01,-0.08,0.01
8:12:43 PM,0.62,-8.58,-5.26,-0.00,0.07,0.01
8:12:43 PM,1.02,-8.36,-5.32,0.04,-0.03,0.01
8:12:43 PM,0.86,-8.44,-5.25,0.04,-0.08,0.01
8:12:43 PM,1.48,-8.43,-5.48,-0.00,-0.03,0.01
8:12:43 PM,1.06,-8.36,-5.47,0.04,0.01,0.01
8:12:43 PM,0.68,-8.50,-5.33,0.00,-0.09,0.01
8:12:43 PM,0.61,-8.24,-5.44,0.02,-0.03,0.01
8:12:43 PM,0.40,-8.57,-5.35,-0.02,0.04,0.01
8:12:43 PM,0.76,-8.50,-5.55,0.01,0.06,0.01
8:12:44 PM,1.46,-8.63,-5.44,-0.01,0.04,0.01
8:12:44 PM,0.34,-8.48,-5.56,0.03,-0.02,0.01
8:12:44 PM,1.07,-8.35,-5.28,0.00,0.03,0.01
8:12:44 PM,0.94,-8.25,-5.28,0.08,-0.06,0.01
8:12:44 PM,0.85,-8.34,-5.62,-0.03,-0.07,0.01
8:12:44 PM,1.16,-8.36,-5.62,0.02,-0.08,0.01
8:12:44 PM,0.81,-8.29,-5.71,0.02,-0.21,0.01
8:12:44 PM,1.19,-8.31,-5.50,0.02,-0.04,0.01
8:12:44 PM,1.14,-8.33,-5.47,-0.02,-0.10,0.01
8:12:45 PM,0.47,-8.63,-5.05,0.11,-0.06,0.01
8:12:45 PM,0.91,-8.37,-5.48,0.01,-0.03,0.01
8:12:45 PM,0.56,-8.58,-5.78,-0.06,0.02,0.01
8:12:45 PM,1.26,-8.49,-5.54,0.01,-0.11,0.01
8:12:45 PM,0.94,-8.50,-5.15,0.04,0.01,0.01
8:12:45 PM,0.92,-8.46,-5.21,0.05,-0.08,0.01
8:12:45 PM,1.09,-8.59,-4.80,0.03,-0.03,0.01
8:12:45 PM,0.85,-8.45,-5.20,0.07,-0.03,0.01
8:12:45 PM,0.19,-8.59,-5.09,0.07,-0.05,0.01
8:12:45 PM,0.67,-8.37,-5.46,0.02,-0.09,0.01
8:12:46 PM,0.83,-8.16,-5.78,-0.00,-0.03,0.01
8:12:46 PM,0.78,-8.39,-5.45,-0.00,-0.03,0.01
8:12:46 PM,0.85,-8.17,-5.28,0.04,-0.02,0.01
8:12:46 PM,0.06,-8.55,-4.93,0.04,0.11,0.01
8:12:46 PM,0.92,-8.41,-5.18,0.10,-0.01,0.01
8:12:46 PM,0.92,-8.73,-4.77,-0.02,-0.12,0.01
8:12:46 PM,0.67,-8.45,-5.32,-0.01,0.01,0.01
8:12:46 PM,0.39,-8.43,-5.75,0.03,-0.04,0.01
8:12:46 PM,0.94,-8.50,-5.59,-0.07,-0.16,0.01
8:12:47 PM,0.93,-8.34,-5.42,0.07,-0.04,0.01
8:12:47 PM,0.61,-8.19,-5.41,0.04,-0.02,0.01
8:12:47 PM,1.30,-8.32,-5.52,-0.04,-0.04,0.01
8:12:47 PM,0.54,-8.48,-5.24,0.03,0.01,0.01
8:12:47 PM,0.92,-8.09,-5.59,0.00,-0.13,0.01
8:12:47 PM,0.16,-8.53,-5.41,0.00,0.16,0.01
8:12:47 PM,0.39,-8.41,-5.31,-0.03,0.08,0.01
8:12:47 PM,0.88,-8.32,-5.50,-0.04,0.04,0.01
8:12:47 PM,0.65,-8.55,-5.67,-0.14,-0.02,0.01
8:12:47 PM,0.76,-7.99,-5.96,0.00,0.01,0.01
8:12:48 PM,1.11,-8.37,-5.54,0.11,-0.15,0.01
8:12:48 PM,0.63,-8.27,-5.28,0.01,0.11,0.01
8:12:48 PM,1.06,-8.34,-5.34,-0.02,-0.07,0.01
8:12:48 PM,0.95,-8.33,-5.72,-0.00,0.04,0.01
8:12:48 PM,0.98,-8.36,-5.70,0.01,-0.11,0.01
8:12:48 PM,1.11,-8.37,-5.75,-0.03,0.01,0.01
8:12:48 PM,0.64,-8.36,-5.88,-0.03,-0.05,0.01
8:12:48 PM,1.05,-8.32,-5.60,0.02,-0.03,0.01
8:12:48 PM,0.97,-8.24,-5.64,0.04,-0.10,0.01
8:12:49 PM,1.02,-8.35,-5.43,0.01,0.02,0.01
8:12:49 PM,0.95,-8.26,-5.89,-0.03,-0.01,0.01
8:12:49 PM,0.90,-8.14,-5.74,0.01,-0.02,0.01
8:12:49 PM,0.85,-8.25,-5.76,-0.05,-0.05,0.01
8:12:49 PM,0.77,-8.40,-5.72,-0.04,0.00,0.01
8:12:49 PM,0.97,-8.40,-5.61,-0.04,-0.02,0.01
8:12:49 PM,0.83,-8.53,-5.62,-0.01,0.03,0.01
8:12:49 PM,0.50,-8.46,-5.42,0.00,0.03,0.01
8:12:49 PM,0.49,-8.36,-5.71,-0.03,-0.02,0.01
8:12:50 PM,0.91,-8.28,-5.88,-0.02,0.00,0.01
8:12:50 PM,0.40,-8.24,-5.60,0.07,0.20,0.01
8:12:50 PM,1.11,-7.38,-5.26,-0.03,0.06,0.01
8:12:50 PM,1.10,-7.80,-5.52,0.01,0.06,0.01
8:12:50 PM,0.55,-8.08,-6.14,0.03,-0.10,0.01
8:12:50 PM,0.89,-8.36,-5.91,0.08,-0.01,0.01
8:12:50 PM,0.79,-8.02,-6.01,0.00,0.01,0.01
8:12:50 PM,0.93,-8.15,-5.81,0.02,-0.10,0.01
8:12:50 PM,0.74,-8.20,-5.77,0.05,0.03,0.01
8:12:50 PM,0.69,-8.16,-5.72,0.01,-0.05,0.01
8:12:51 PM,0.84,-8.26,-5.92,-0.03,-0.08,0.01
8:12:51 PM,1.17,-8.13,-6.00,-0.02,-0.09,0.01
8:12:51 PM,0.64,-8.24,-5.86,0.04,0.01,0.01
8:12:51 PM,1.27,-8.36,-5.55,0.03,-0.03,0.01
8:12:51 PM,0.75,-8.25,-6.17,-0.02,0.03,0.01
8:12:51 PM,0.63,-8.15,-5.99,0.06,-0.00,0.01
8:12:51 PM,1.05,-8.31,-5.73,0.01,-0.07,0.01
8:12:51 PM,1.07,-8.01,-5.81,0.05,-0.10,0.01
8:12:51 PM,1.06,-8.16,-5.52,0.02,0.01,0.01
8:12:52 PM,0.64,-7.92,-6.13,0.23,-0.07,0.01
8:12:52 PM,1.29,-8.12,-5.25,0.08,-0.03,0.01
8:12:52 PM,0.85,-8.15,-5.60,-0.00,0.01,0.01
8:12:52 PM,1.07,-8.38,-5.59,0.02,-0.04,0.01
8:12:52 PM,0.95,-8.17,-5.85,-0.16,-0.02,0.01
8:12:52 PM,0.93,-8.21,-6.11,-0.01,0.02,0.01
8:12:52 PM,1.17,-8.16,-5.81,0.03,-0.03,0.01
8:12:52 PM,1.01,-8.06,-5.75,-0.01,-0.06,0.01
8:12:52 PM,0.57,-8.16,-5.66,0.08,0.10,0.01
8:12:52 PM,1.49,-8.11,-5.70,0.03,-0.15,0.01
8:12:53 PM,1.02,-8.36,-5.73,0.02,0.07,0.01
8:12:53 PM,1.10,-8.17,-5.69,-0.04,-0.12,0.01
8:12:53 PM,0.68,-8.07,-6.07,-0.04,0.06,0.01
8:12:53 PM,0.70,-8.27,-6.22,-0.03,-0.04,0.01
8:12:53 PM,1.06,-8.33,-6.23,0.02,-0.04,0.01
8:12:53 PM,0.81,-8.28,-6.08,0.12,-0.01,0.01
8:12:53 PM,0.23,-8.01,-5.73,0.11,0.06,0.01
8:12:53 PM,0.86,-8.49,-5.02,-0.02,-0.03,0.01
8:12:53 PM,0.86,-9.33,-6.33,0.01,0.21,0.01
8:12:54 PM,0.51,-8.50,-5.67,0.02,0.00,0.01
8:12:54 PM,0.51,-8.31,-5.37,0.04,-0.11,0.01
8:12:54 PM,1.27,-8.41,-5.06,0.02,-0.06,0.01
8:12:54 PM,0.80,-8.27,-5.51,0.07,-0.06,0.01
8:12:54 PM,0.72,-8.26,-5.61,0.05,0.05,0.01
8:12:54 PM,0.27,-8.29,-5.83,0.05,0.02,0.01
8:12:54 PM,0.59,-8.38,-6.23,-0.07,0.04,0.01
8:12:54 PM,1.21,-8.24,-5.83,-0.04,-0.09,0.01
8:12:54 PM,1.08,-8.14,-5.75,-0.10,-0.15,0.01
8:12:54 PM,1.01,-8.34,-5.60,0.05,0.03,0.01
8:12:55 PM,1.07,-8.17,-5.39,0.05,-0.01,0.01
8:12:55 PM,0.91,-8.24,-5.89,-0.01,0.01,0.01
8:12:55 PM,0.85,-8.57,-5.70,-0.03,0.01,0.01
8:12:55 PM,1.04,-8.46,-5.59,-0.01,0.06,0.01
8:12:55 PM,0.74,-8.27,-5.69,0.03,-0.12,0.01
8:12:55 PM,0.83,-8.45,-5.53,-0.00,-0.05,0.01
8:12:55 PM,0.64,-8.34,-5.55,0.09,-0.07,0.01
8:12:55 PM,0.55,-8.40,-5.49,0.04,-0.10,0.01
8:12:55 PM,1.02,-8.07,-5.99,-0.02,-0.08,0.01
8:12:56 PM,1.36,-8.57,-5.54,0.03,-0.11,0.01
8:12:56 PM,0.38,-8.52,-5.57,-0.00,0.03,0.01
8:12:56 PM,0.99,-8.41,-5.69,0.02,0.02,0.01
8:12:56 PM,0.44,-8.51,-5.47,0.04,-0.11,0.01
8:12:56 PM,0.72,-8.48,-5.65,-0.07,0.17,0.01
8:12:56 PM,0.57,-8.56,-5.71,0.04,0.04,0.01
8:12:56 PM,0.92,-8.19,-5.80,-0.06,0.04,0.01
8:12:56 PM,0.70,-8.35,-5.73,0.05,-0.07,0.01
8:12:56 PM,0.79,-8.37,-5.59,0.00,0.07,0.01
8:12:56 PM,0.85,-8.49,-5.23,0.03,-0.00,0.01
8:12:57 PM,0.74,-8.35,-5.51,0.02,-0.02,0.01
8:12:57 PM,0.27,-8.29,-5.77,-0.09,0.02,0.01
8:12:57 PM,1.38,-8.16,-5.88,-0.00,-0.04,0.01
8:12:57 PM,0.76,-8.21,-5.79,-0.02,0.04,0.01
8:12:57 PM,0.85,-8.49,-5.34,0.04,-0.04,0.01
8:12:57 PM,0.81,-8.17,-5.54,0.02,0.04,0.01
8:12:57 PM,0.91,-8.38,-5.68,-0.05,-0.01,0.01
8:12:57 PM,0.78,-8.05,-5.53,0.03,0.08,0.01
8:12:57 PM,1.35,-7.74,-5.56,-0.05,0.01,0.01
8:12:58 PM,0.79,-8.04,-5.61,0.09,-0.06,0.01
8:12:58 PM,0.74,-8.15,-5.52,0.02,-0.06,0.01
8:12:58 PM,1.19,-8.32,-5.90,-0.04,0.00,0.01
8:12:58 PM,0.76,-8.18,-5.90,0.01,-0.00,0.01
8:12:58 PM,1.04,-8.13,-5.77,0.03,-0.06,0.01
8:12:58 PM,0.83,-8.28,-5.59,0.05,0.00,0.01
8:12:58 PM,1.22,-8.24,-5.78,-0.02,-0.03,0.01
8:12:58 PM,0.74,-7.80,-6.03,-0.07,-0.04,0.01
8:12:58 PM,0.88,-8.21,-5.83,-0.02,0.06,0.01
8:12:58 PM,1.30,-8.00,-5.77,0.03,-0.08,0.01
8:12:59 PM,1.11,-8.08,-5.87,0.02,0.02,0.01
8:12:59 PM,1.20,-8.15,-5.98,-0.03,-0.01,0.01
8:12:59 PM,0.53,-8.31,-5.67,0.03,-0.00,0.01
8:12:59 PM,0.93,-8.37,-6.02,-0.03,0.09,0.01
8:12:59 PM,0.84,-8.26,-6.15,0.01,0.07,0.01
8:12:59 PM,0.93,-8.31,-5.67,0.01,-0.10,0.01
8:12:59 PM,1.22,-8.07,-5.61,0.03,-0.06,0.01
8:12:59 PM,1.08,-8.02,-6.00,0.01,-0.03,0.01
8:12:59 PM,0.64,-8.22,-6.18,-0.03,-0.03,0.01
8:13:00 PM,1.05,-8.15,-5.89,0.05,-0.05,0.01
8:13:00 PM,1.34,-8.02,-5.78,0.02,0.01,0.01
8:13:00 PM,0.94,-8.02,-6.17,-0.01,-0.06,0.01
8:13:00 PM,1.11,-8.29,-5.90,-0.01,0.01,0.01
8:13:00 PM,0.88,-8.17,-6.00,0.04,0.02,0.01
8:13:00 PM,0.95,-8.16,-6.14,-0.00,0.01,0.01
8:13:00 PM,0.60,-8.40,-5.76,0.03,-0.04,0.01
8:13:00 PM,1.12,-8.16,-5.77,0.02,-0.01,0.01
8:13:00 PM,0.67,-8.03,-6.00,0.00,0.04,0.01
8:13:00 PM,1.18,-8.10,-5.99,-0.01,-0.06,0.01
8:13:01 PM,1.21,-8.13,-5.82,0.06,-0.09,0.01
8:13:01 PM,0.64,-8.06,-5.99,0.02,-0.10,0.01
8:13:01 PM,1.01,-8.07,-6.24,0.01,-0.00,0.01
8:13:01 PM,0.88,-8.27,-6.09,-0.03,0.04,0.01
8:13:01 PM,1.17,-8.15,-6.04,0.02,0.03,0.01
8:13:01 PM,0.84,-8.04,-6.09,-0.02,-0.09,0.01
8:13:01 PM,1.07,-8.08,-5.93,0.00,0.04,0.01
8:13:01 PM,0.79,-7.90,-6.30,0.02,-0.03,0.01
8:13:01 PM,1.11,-8.10,-5.81,0.00,-0.03,0.01
8:13:02 PM,0.85,-7.91,-6.15,-0.05,-0.00,0.01
8:13:02 PM,1.23,-8.15,-5.97,-0.01,-0.07,0.01
8:13:02 PM,1.08,-8.13,-6.22,-0.03,0.00,0.01
8:13:02 PM,1.38,-8.12,-6.08,-0.01,-0.07,0.01
8:13:02 PM,0.69,-8.16,-6.10,-0.02,0.09,0.01
8:13:02 PM,0.75,-8.19,-5.88,0.01,0.04,0.01
8:13:02 PM,0.84,-8.13,-5.88,0.05,0.02,0.01
8:13:02 PM,1.22,-8.02,-6.01,0.03,-0.03,0.01
8:13:02 PM,1.07,-8.11,-6.28,-0.03,-0.03,0.01
8:13:03 PM,0.53,-8.05,-6.26,0.00,0.09,0.01
8:13:03 PM,1.11,-8.09,-6.16,-0.04,-0.05,0.01
8:13:03 PM,0.66,-8.10,-5.68,0.07,-0.01,0.01
8:13:03 PM,1.30,-7.94,-6.12,-0.01,-0.05,0.01
8:13:03 PM,1.06,-7.94,-6.25,0.01,-0.01,0.01
8:13:03 PM,1.06,-7.98,-6.36,-0.03,-0.00,0.01
8:13:03 PM,1.22,-8.20,-5.74,0.03,-0.04,0.01
8:13:03 PM,1.09,-8.17,-5.60,0.04,0.01,0.01
8:13:03 PM,0.94,-8.13,-5.50,0.08,0.02,0.01
8:13:03 PM,1.31,-7.98,-5.97,0.04,-0.03,0.01
8:13:04 PM,1.06,-8.15,-5.97,0.02,0.01,0.01
8:13:04 PM,1.09,-8.09,-6.07,0.02,0.07,0.01
8:13:04 PM,0.74,-8.16,-5.98,-0.01,0.08,0.01
8:13:04 PM,1.34,-8.09,-5.70,0.03,-0.05,0.01
8:13:04 PM,1.22,-8.06,-5.90,-0.02,0.04,0.01
8:13:04 PM,1.11,-8.03,-6.08,-0.01,-0.05,0.01
8:13:04 PM,0.90,-8.08,-6.23,-0.03,-0.09,0.01
8:13:04 PM,0.96,-8.07,-6.33,0.04,-0.07,0.01
8:13:04 PM,1.08,-8.13,-5.64,0.03,0.03,0.01
8:13:05 PM,1.09,-8.23,-6.14,-0.01,0.02,0.01
8:13:05 PM,1.09,-8.19,-5.93,0.03,-0.03,0.01
8:13:05 PM,0.80,-8.15,-6.09,0.04,0.02,0.01
8:13:05 PM,1.06,-8.28,-5.90,-0.01,-0.01,0.01
8:13:05 PM,1.33,-8.16,-5.84,0.02,0.05,0.01
8:13:05 PM,0.15,-8.15,-6.38,0.02,-0.07,0.01
8:13:05 PM,1.73,-8.20,-5.69,0.02,-0.09,0.01
8:13:05 PM,1.22,-8.16,-5.84,0.02,0.03,0.01
8:13:05 PM,1.19,-7.87,-6.07,0.00,-0.01,0.01
8:13:05 PM,1.30,-8.19,-5.82,0.03,0.04,0.01
8:13:06 PM,1.24,-8.08,-5.91,0.02,0.08,0.01
8:13:06 PM,0.65,-8.01,-6.01,-0.01,-0.00,0.01
8:13:06 PM,1.22,-7.94,-6.04,0.01,-0.03,0.01
8:13:06 PM,1.11,-8.04,-5.84,0.01,-0.07,0.01
8:13:06 PM,1.45,-8.09,-5.85,0.03,-0.07,0.01
8:13:06 PM,1.29,-8.12,-6.41,-0.03,-0.01,0.01
8:13:06 PM,1.15,-7.98,-6.37,0.03,0.01,0.01
8:13:06 PM,1.27,-8.17,-5.73,0.01,-0.01,0.01
8:13:06 PM,1.15,-8.10,-6.06,-0.02,-0.00,0.01
8:13:07 PM,1.56,-8.10,-6.02,-0.01,-0.08,0.01
8:13:07 PM,1.50,-8.03,-5.65,0.04,-0.05,0.01
8:13:07 PM,1.06,-8.09,-5.82,0.01,0.01,0.01
8:13:07 PM,0.93,-7.97,-6.29,-0.01,-0.06,0.01
8:13:07 PM,1.38,-8.10,-6.02,0.02,-0.07,0.01
8:13:07 PM,1.02,-7.98,-5.83,0.01,-0.08,0.01
8:13:07 PM,1.23,-8.15,-5.94,-0.04,0.01,0.01
8:13:07 PM,1.26,-8.15,-6.17,0.01,-0.02,0.01
8:13:07 PM,1.11,-8.10,-5.93,0.04,0.01,0.01
8:13:07 PM,0.94,-8.04,-5.82,0.02,0.01,0.01
8:13:08 PM,1.19,-8.00,-6.09,-0.00,-0.02,0.01
8:13:08 PM,1.07,-8.03,-6.26,-0.02,0.03,0.01
8:13:08 PM,1.27,-8.21,-6.15,0.01,-0.05,0.01
8:13:08 PM,1.34,-8.06,-6.19,-0.00,-0.01,0.01
8:13:08 PM,0.94,-8.06,-6.00,-0.01,-0.03,0.01
8:13:08 PM,1.53,-7.91,-6.00,0.01,-0.05,0.01
8:13:08 PM,0.91,-8.27,-5.83,0.08,-0.06,0.01
8:13:08 PM,1.46,-7.99,-5.74,0.18,-0.09,0.01
8:13:08 PM,0.74,-8.12,-5.57,0.10,-0.03,0.01
8:13:09 PM,0.94,-8.16,-5.84,0.08,0.03,0.01
8:13:09 PM,1.20,-7.62,-6.03,-0.13,-0.13,0.01
8:13:09 PM,1.16,-8.47,-5.86,-0.06,0.03,0.01
8:13:09 PM,0.89,-8.36,-5.13,-0.04,0.01,0.01
8:13:09 PM,0.98,-8.27,-5.20,-0.01,-0.05,0.01
8:13:09 PM,0.15,-8.09,-5.99,0.09,-0.01,0.01
8:13:09 PM,1.32,-8.36,-5.84,-0.04,-0.08,0.01
8:13:09 PM,0.91,-8.28,-5.84,-0.02,0.00,0.01
8:13:09 PM,0.92,-8.38,-5.75,0.02,-0.01,0.01
8:13:09 PM,0.58,-8.20,-5.66,0.01,0.05,0.01
8:13:10 PM,1.19,-8.15,-5.72,0.05,-0.09,0.01
8:13:10 PM,0.99,-8.53,-5.51,0.06,-0.02,0.01
8:13:10 PM,2.02,-8.25,-4.77,0.26,-0.04,0.01
8:13:10 PM,0.67,-8.00,-5.75,0.05,-0.00,0.01
8:13:10 PM,1.18,-8.12,-5.44,-0.01,-0.10,0.01
8:13:10 PM,1.05,-8.21,-5.80,-0.03,-0.01,0.01
8:13:10 PM,1.02,-8.21,-5.71,0.04,-0.08,0.01
8:13:10 PM,1.12,-8.24,-5.43,-0.03,0.02,0.01
8:13:10 PM,1.32,-8.34,-5.52,-0.01,-0.05,0.01
8:13:11 PM,0.74,-8.38,-5.71,-0.02,0.08,0.01
8:13:11 PM,1.09,-8.39,-5.60,-0.01,-0.08,0.01
8:13:11 PM,1.29,-8.24,-5.62,0.05,-0.03,0.01
8:13:11 PM,0.87,-8.16,-5.47,0.04,-0.06,0.01
8:13:11 PM,1.21,-8.32,-5.26,0.02,0.04,0.01
8:13:11 PM,0.66,-8.11,-5.99,-0.03,-0.03,0.01
8:13:11 PM,1.21,-8.35,-6.01,-0.02,-0.08,0.01
8:13:11 PM,1.02,-8.39,-5.83,-0.02,0.19,0.01
8:13:11 PM,1.30,-8.43,-5.48,-0.02,-0.03,0.01
8:13:11 PM,0.89,-8.28,-5.59,-0.01,0.03,0.01
8:13:12 PM,0.97,-8.36,-5.65,-0.01,-0.04,0.01
8:13:12 PM,1.41,-8.15,-5.77,-0.06,-0.11,0.01
8:13:12 PM,0.53,-8.14,-5.86,0.01,0.01,0.01
8:13:12 PM,1.26,-8.21,-5.60,0.01,-0.04,0.01
8:13:12 PM,1.01,-8.20,-5.61,0.03,0.02,0.01
8:13:12 PM,1.04,-8.14,-5.95,-0.02,-0.01,0.01
8:13:12 PM,1.11,-8.37,-5.74,-0.06,-0.00,0.01
8:13:12 PM,0.84,-8.29,-5.91,-0.03,-0.00,0.01
8:13:12 PM,1.24,-8.24,-5.86,-0.00,0.05,0.01
8:13:13 PM,1.26,-8.37,-5.85,-0.02,-0.02,0.01
8:13:13 PM,1.26,-8.09,-5.75,0.03,-0.07,0.01
8:13:13 PM,1.03,-8.07,-5.67,0.02,0.01,0.01
8:13:13 PM,1.34,-8.25,-5.66,0.01,-0.01,0.01
8:13:13 PM,1.22,-8.24,-5.59,0.01,0.06,0.01
8:13:13 PM,0.96,-8.09,-5.87,-0.02,-0.05,0.01
8:13:13 PM,1.09,-8.14,-5.71,0.00,0.08,0.01
8:13:13 PM,1.15,-8.15,-5.73,-0.01,0.01,0.01
8:13:13 PM,1.22,-8.19,-5.69,0.00,-0.03,0.01
8:13:13 PM,1.27,-8.15,-5.91,-0.04,0.02,0.01
8:13:14 PM,1.36,-8.11,-5.96,-0.01,-0.12,0.01
8:13:14 PM,1.02,-8.13,-5.83,-0.00,0.11,0.01
8:13:14 PM,0.86,-8.03,-6.08,-0.03,-0.07,0.01
8:13:14 PM,0.85,-8.00,-6.02,-0.01,0.04,0.01
8:13:14 PM,1.10,-8.06,-6.00,-0.01,-0.00,0.01
8:13:14 PM,1.45,-8.17,-5.74,0.04,-0.09,0.01
8:13:14 PM,0.99,-8.23,-5.62,0.04,-0.04,0.01
8:13:15 PM,1.13,-8.18,-6.08,0.04,-0.03,0.01
8:13:15 PM,0.91,-8.11,-6.08,-0.05,-0.02,0.01
8:13:15 PM,0.96,-8.26,-5.69,0.01,0.01,0.01
8:13:15 PM,1.37,-8.30,-5.62,0.03,-0.04,0.01
8:13:15 PM,0.93,-8.18,-5.69,0.03,0.04,0.01
8:13:15 PM,1.43,-8.26,-5.79,-0.04,-0.01,0.01
8:13:16 PM,0.81,-8.20,-5.77,0.05,-0.03,0.01
8:13:16 PM,1.39,-7.88,-6.66,0.01,0.02,0.01
8:13:16 PM,1.27,-7.99,-5.64,-0.03,-0.04,0.01
8:13:16 PM,1.45,-8.05,-5.17,0.07,-0.14,0.01
8:13:16 PM,1.04,-8.17,-5.64,-0.03,0.11,0.01
8:13:16 PM,0.87,-8.24,-5.82,0.08,-0.04,0.01
8:13:16 PM,1.28,-8.11,-5.90,0.02,0.09,0.01
8:13:16 PM,1.06,-8.09,-5.82,0.01,-0.07,0.01
8:13:16 PM,1.02,-8.25,-5.70,0.00,0.08,0.01
8:13:17 PM,1.36,-8.21,-5.86,0.04,0.00,0.01
8:13:17 PM,1.16,-8.08,-6.00,-0.02,-0.06,0.01
8:13:17 PM,0.91,-8.23,-5.67,-0.00,-0.01,0.01
8:13:17 PM,1.89,-8.22,-5.76,-0.01,-0.02,0.01
8:13:17 PM,0.98,-8.08,-5.99,-0.03,-0.04,0.01
8:13:17 PM,0.85,-8.26,-5.80,0.04,-0.00,0.01
8:13:17 PM,1.11,-8.14,-5.84,0.01,0.03,0.01
8:13:17 PM,0.93,-8.28,-5.83,0.02,0.00,0.01
8:13:17 PM,1.14,-8.28,-5.63,0.03,-0.07,0.01
8:13:18 PM,0.87,-8.12,-5.55,0.04,0.01,0.01
8:13:18 PM,1.05,-8.18,-5.43,0.06,0.02,0.01
8:13:18 PM,1.07,-8.13,-5.70,-0.00,-0.05,0.01
8:13:18 PM,1.36,-8.10,-5.99,-0.01,-0.05,0.01
8:13:18 PM,1.20,-8.25,-6.02,-0.01,-0.05,0.01
8:13:18 PM,0.84,-8.27,-5.83,0.01,0.08,0.01
8:13:18 PM,1.03,-8.16,-5.76,0.04,0.01,0.01
8:13:18 PM,0.95,-8.05,-5.84,-0.01,-0.05,0.01
8:13:18 PM,1.14,-8.08,-5.96,-0.01,-0.01,0.01
8:13:19 PM,0.88,-8.23,-5.73,0.05,-0.01,0.01
8:13:19 PM,0.67,-8.11,-5.83,0.03,0.09,0.01
8:13:19 PM,0.86,-8.29,-5.94,-0.00,0.04,0.01
8:13:19 PM,1.30,-8.17,-5.87,-0.01,-0.01,0.01
8:13:19 PM,1.25,-8.20,-5.70,0.01,-0.02,0.01
8:13:19 PM,0.84,-8.11,-5.92,-0.01,0.01,0.01
8:13:19 PM,1.32,-8.21,-5.85,-0.01,0.01,0.01
8:13:19 PM,1.08,-8.22,-5.94,0.01,-0.02,0.01
8:13:19 PM,1.25,-8.05,-5.78,0.00,-0.05,0.01
8:13:19 PM,1.06,-8.08,-5.83,-0.00,0.01,0.01
8:13:20 PM,1.22,-8.21,-5.82,-0.01,-0.03,0.01
8:13:20 PM,1.02,-8.16,-5.82,-0.03,-0.00,0.01
8:13:20 PM,1.04,-8.20,-5.87,-0.00,-0.03,0.01
8:13:20 PM,1.18,-8.10,-5.95,0.01,-0.01,0.01
8:13:20 PM,0.97,-8.20,-5.82,0.04,-0.02,0.01
8:13:20 PM,1.11,-8.13,-5.91,-0.05,0.02,0.01
8:13:20 PM,1.11,-8.30,-5.84,-0.07,-0.05,0.01
8:13:20 PM,1.14,-8.12,-5.92,-0.00,0.02,0.01
8:13:20 PM,1.09,-8.02,-5.78,0.08,-0.01,0.01
8:13:21 PM,1.09,-8.09,-6.03,0.01,-0.03,0.01
8:13:21 PM,1.18,-8.08,-5.85,0.00,-0.07,0.01
8:13:21 PM,0.95,-8.17,-5.85,0.01,0.03,0.01
8:13:21 PM,0.77,-8.20,-5.85,0.03,-0.04,0.01
8:13:21 PM,1.42,-8.20,-5.48,0.04,-0.09,0.01
8:13:21 PM,0.97,-8.15,-5.82,0.02,-0.05,0.01
8:13:21 PM,1.02,-8.23,-5.89,0.01,-0.03,0.01
8:13:21 PM,0.84,-8.06,-6.22,-0.01,0.02,0.01
8:13:21 PM,1.43,-8.26,-5.62,0.07,-0.07,0.01
8:13:21 PM,1.17,-8.19,-5.52,0.02,0.06,0.01
8:13:22 PM,1.13,-8.31,-5.19,0.10,-0.09,0.01
8:13:22 PM,1.04,-8.24,-5.36,0.08,-0.03,0.01
8:13:22 PM,0.76,-8.15,-6.04,-0.05,-0.16,0.01
8:13:22 PM,1.49,-8.59,-5.49,-0.03,0.02,0.01
8:13:22 PM,0.82,-8.14,-6.03,0.05,0.12,0.01
8:13:22 PM,0.79,-8.15,-5.70,-0.01,0.07,0.01
8:13:22 PM,0.98,-8.31,-5.40,-0.05,-0.02,0.01
8:13:22 PM,0.89,-8.25,-5.56,0.06,0.01,0.01
8:13:22 PM,1.17,-8.35,-5.25,0.05,-0.08,0.01
8:13:23 PM,0.81,-8.29,-5.41,0.03,-0.10,0.01
8:13:23 PM,1.21,-8.46,-5.64,-0.02,0.06,0.01
8:13:23 PM,0.81,-8.28,-5.86,-0.00,0.03,0.01
8:13:23 PM,0.90,-8.00,-5.95,-0.01,-0.11,0.01
8:13:23 PM,0.64,-8.36,-5.53,0.04,-0.05,0.01
8:13:23 PM,1.41,-8.30,-5.30,-0.02,-0.07,0.01
8:13:23 PM,0.71,-8.32,-5.32,0.08,-0.04,0.01
8:13:23 PM,0.88,-8.42,-5.39,0.01,-0.01,0.01
8:13:23 PM,1.06,-8.24,-6.15,-0.05,-0.06,0.01
8:13:24 PM,1.22,-8.35,-5.93,-0.04,0.02,0.01
8:13:24 PM,1.15,-8.46,-5.49,-0.01,0.05,0.01
8:13:24 PM,0.53,-8.29,-5.41,0.03,0.04,0.01
8:13:24 PM,1.33,-8.36,-5.72,0.01,-0.06,0.01
8:13:24 PM,1.20,-8.29,-5.54,-0.01,-0.08,0.01
8:13:24 PM,0.94,-8.46,-5.48,0.01,0.04,0.01
8:13:24 PM,1.11,-8.37,-5.52,-0.01,0.06,0.01
8:13:24 PM,1.03,-8.17,-5.79,0.03,0.01,0.01
8:13:24 PM,0.97,-8.53,-5.57,-0.01,0.12,0.01
8:13:24 PM,0.56,-8.31,-5.54,0.03,-0.02,0.01
8:13:25 PM,0.83,-8.33,-5.68,0.04,0.02,0.01
8:13:25 PM,1.13,-8.51,-5.67,0.01,-0.02,0.01
8:13:25 PM,1.17,-8.27,-5.58,0.05,-0.09,0.01
8:13:25 PM,1.05,-8.23,-5.26,0.05,0.04,0.01
8:13:25 PM,0.48,-8.41,-5.42,0.08,0.03,0.01
8:13:25 PM,0.60,-8.42,-5.73,-0.05,0.07,0.01
8:13:25 PM,0.77,-8.44,-5.60,-0.04,0.00,0.01
8:13:25 PM,0.62,-8.43,-5.21,-0.03,0.07,0.01
8:13:25 PM,1.08,-8.48,-5.87,-0.01,0.05,0.01
8:13:26 PM,0.68,-8.39,-6.28,-0.03,0.02,0.01
8:13:26 PM,0.86,-8.34,-5.37,0.00,-0.08,0.01
8:13:26 PM,0.70,-8.17,-5.80,-0.03,-0.05,0.01
8:13:26 PM,1.04,-8.35,-5.33,0.02,-0.09,0.01
8:13:26 PM,0.92,-8.10,-5.63,-0.02,-0.02,0.01
8:13:26 PM,1.11,-8.37,-5.64,-0.03,-0.03,0.01
8:13:26 PM,0.73,-8.43,-5.66,-0.00,0.02,0.01
8:13:26 PM,1.16,-8.68,-5.28,-0.31,0.01,0.01
8:13:26 PM,0.92,-8.17,-5.96,0.02,-0.03,0.01
8:13:26 PM,1.07,-8.08,-5.77,0.05,-0.02,0.01
8:13:27 PM,0.86,-8.15,-5.61,-0.00,0.02,0.01
8:13:27 PM,1.14,-8.18,-5.56,0.05,-0.04,0.01
8:13:27 PM,1.08,-8.35,-5.61,0.02,-0.03,0.01
8:13:27 PM,1.08,-8.10,-5.74,0.06,-0.05,0.01
8:13:27 PM,1.24,-8.02,-5.59,-0.02,-0.11,0.01
8:13:27 PM,1.02,-8.17,-6.02,-0.00,0.04,0.01
8:13:27 PM,0.69,-8.17,-5.71,0.03,0.02,0.01
8:13:27 PM,1.08,-8.27,-5.61,0.03,-0.05,0.01
8:13:27 PM,1.32,-8.06,-5.80,0.03,-0.07,0.01
8:13:28 PM,0.97,-8.11,-5.89,-0.02,-0.09,0.01
8:13:28 PM,0.77,-8.27,-5.69,0.00,0.11,0.01
8:13:28 PM,1.13,-8.17,-5.89,-0.04,-0.03,0.01
8:13:28 PM,0.90,-8.28,-5.84,-0.00,0.06,0.01
8:13:28 PM,1.20,-8.06,-5.83,0.00,-0.03,0.01
8:13:28 PM,0.93,-8.17,-5.68,0.03,0.03,0.01
8:13:28 PM,1.28,-8.26,-5.64,0.00,-0.10,0.01
8:13:28 PM,0.71,-8.20,-6.16,-0.02,-0.02,0.01
8:13:28 PM,0.88,-8.31,-6.08,-0.03,-0.01,0.01
8:13:28 PM,1.25,-8.17,-5.84,-0.02,-0.05,0.01
8:13:29 PM,0.79,-8.15,-6.06,-0.01,0.04,0.01
8:13:29 PM,1.26,-8.32,-5.66,0.01,-0.04,0.01
8:13:29 PM,1.13,-8.12,-6.04,-0.01,-0.01,0.01
8:13:29 PM,1.06,-8.15,-5.94,0.01,0.01,0.01
8:13:29 PM,1.16,-8.09,-5.92,0.02,0.09,0.01
8:13:29 PM,1.09,-8.13,-5.80,0.03,-0.04,0.01
8:13:29 PM,1.14,-8.20,-5.66,-0.01,-0.01,0.01
8:13:29 PM,1.29,-8.10,-5.79,0.05,-0.05,0.01
8:13:29 PM,1.13,-8.17,-5.70,0.07,-0.06,0.01
8:13:30 PM,0.82,-8.10,-6.17,-0.04,-0.07,0.01
8:13:30 PM,1.29,-8.23,-6.24,-0.03,0.04,0.01
8:13:30 PM,1.19,-8.14,-6.14,-0.00,0.04,0.01
8:13:30 PM,0.90,-8.15,-5.81,-0.05,0.04,0.01
8:13:30 PM,1.63,-8.33,-5.84,-0.03,-0.02,0.01
8:13:30 PM,1.23,-8.05,-6.17,-0.03,0.01,0.01
8:13:30 PM,1.21,-8.02,-5.83,-0.01,0.03,0.01
8:13:30 PM,1.15,-8.01,-6.05,0.02,-0.07,0.01
8:13:30 PM,0.93,-8.26,-5.87,-0.03,0.06,0.01
8:13:30 PM,1.01,-8.24,-5.99,-0.02,0.02,0.01
8:13:31 PM,1.15,-8.12,-6.07,-0.00,-0.07,0.01
8:13:31 PM,1.32,-8.08,-5.86,0.03,-0.03,0.01
8:13:31 PM,0.86,-8.13,-5.90,-0.02,-0.01,0.01
8:13:31 PM,1.03,-8.11,-5.85,0.01,0.00,0.01
8:13:31 PM,1.14,-8.04,-5.96,-0.01,0.01,0.01
8:13:31 PM,1.21,-7.98,-5.85,0.00,-0.03,0.01
8:13:31 PM,1.06,-8.11,-5.79,0.01,-0.03,0.01
8:13:31 PM,1.34,-7.95,-6.04,-0.02,-0.05,0.01
8:13:31 PM,1.24,-8.15,-5.79,0.02,0.01,0.01
8:13:32 PM,0.99,-8.21,-5.91,-0.01,-0.02,0.01
8:13:32 PM,1.17,-8.20,-5.83,0.02,-0.00,0.01
8:13:32 PM,0.97,-8.21,-5.62,0.01,0.00,0.01
8:13:32 PM,0.89,-8.24,-5.81,-0.04,0.04,0.01
8:13:32 PM,0.92,-8.09,-5.96,-0.01,-0.03,0.01
8:13:32 PM,1.16,-8.16,-5.95,0.01,-0.03,0.01
8:13:32 PM,1.04,-8.11,-6.00,0.00,0.01,0.01
8:13:32 PM,1.23,-8.14,-5.82,-0.01,-0.03,0.01
8:13:32 PM,1.10,-8.13,-6.02,-0.04,-0.01,0.01
8:13:32 PM,1.59,-8.15,-6.11,-0.04,0.01,0.01
8:13:33 PM,1.24,-7.92,-6.26,-0.01,-0.03,0.01
8:13:33 PM,1.28,-7.95,-6.10,0.03,-0.06,0.01
8:13:33 PM,1.35,-7.94,-5.89,0.07,-0.10,0.01
8:13:33 PM,1.01,-8.10,-5.85,0.02,0.02,0.01
8:13:33 PM,1.00,-8.16,-5.77,0.04,-0.04,0.01
8:13:33 PM,1.23,-8.26,-5.77,0.02,0.04,0.01
8:13:33 PM,1.35,-8.04,-6.00,0.01,-0.03,0.01
8:13:33 PM,1.36,-8.19,-5.88,-0.02,0.06,0.01
8:13:33 PM,1.32,-8.30,-6.11,-0.01,-0.60,0.01
8:13:34 PM,1.03,-8.18,-5.83,0.06,0.06,0.01
8:13:34 PM,1.32,-8.38,-5.98,0.04,0.02,0.01
8:13:34 PM,1.44,-7.93,-6.20,0.00,-0.06,0.01
8:13:34 PM,1.14,-8.06,-6.19,-0.05,0.00,0.01
8:13:34 PM,1.00,-8.03,-6.13,-0.02,0.02,0.01
8:13:34 PM,1.24,-7.98,-6.13,-0.03,0.03,0.01
8:13:34 PM,1.37,-8.04,-6.12,0.01,0.01,0.01
8:13:34 PM,1.26,-8.13,-5.69,0.02,-0.02,0.01
8:13:34 PM,1.07,-8.03,-5.98,0.00,-0.01,0.01
8:13:34 PM,1.38,-7.99,-5.97,0.03,-0.02,0.01
8:13:35 PM,1.02,-8.09,-5.97,-0.00,-0.05,0.01
8:13:35 PM,1.13,-7.97,-6.09,0.04,0.09,0.01
8:13:35 PM,1.07,-8.03,-6.23,0.01,-0.05,0.01
8:13:35 PM,1.15,-8.04,-6.13,-0.01,0.03,0.01
8:13:35 PM,1.39,-8.09,-6.14,-0.02,0.09,0.01
8:13:35 PM,1.21,-8.08,-5.91,0.03,-0.05,0.01
8:13:35 PM,1.15,-7.84,-5.85,0.05,-0.06,0.01
8:13:35 PM,1.07,-8.14,-5.72,0.01,-0.08,0.01
8:13:35 PM,1.42,-8.06,-6.08,0.02,0.03,0.01
8:13:36 PM,1.16,-8.17,-6.08,-0.01,-0.02,0.01
8:13:36 PM,1.40,-8.08,-5.90,0.02,-0.03,0.01
8:13:36 PM,1.36,-7.95,-5.64,0.03,-0.02,0.01
8:13:36 PM,1.48,-7.97,-5.83,0.00,-0.01,0.01
8:13:36 PM,1.48,-8.05,-6.02,-0.01,-0.13,0.01
8:13:36 PM,1.42,-7.96,-6.12,0.01,-0.04,0.01
8:13:36 PM,1.27,-8.01,-6.12,0.01,-0.02,0.01
8:13:36 PM,1.11,-7.95,-6.07,-0.01,0.08,0.01
8:13:36 PM,1.41,-7.91,-6.13,0.01,-0.04,0.01
8:13:37 PM,1.26,-7.95,-6.33,-0.01,0.05,0.01
8:13:37 PM,1.71,-8.05,-6.13,-0.01,-0.18,0.01
8:13:37 PM,1.37,-8.04,-5.77,0.03,0.09,0.01
8:13:37 PM,1.47,-7.92,-5.99,0.02,-0.05,0.01
8:13:37 PM,1.23,-8.18,-6.01,-0.02,0.04,0.01
8:13:37 PM,1.33,-7.93,-6.18,-0.01,0.01,0.01
8:13:37 PM,1.37,-7.97,-6.05,0.03,-0.02,0.01
8:13:37 PM,1.51,-8.01,-6.06,0.02,-0.05,0.01
8:13:37 PM,1.49,-8.09,-5.99,-0.00,0.06,0.01
8:13:37 PM,1.45,-8.10,-6.08,0.00,-0.11,0.01
8:13:38 PM,1.05,-8.08,-6.05,-0.00,-0.07,0.01
8:13:38 PM,1.26,-8.06,-6.05,-0.00,0.02,0.01
8:13:38 PM,1.23,-8.03,-6.26,0.01,0.01,0.01
8:13:38 PM,1.71,-7.98,-6.03,-0.01,0.00,0.01
8:13:38 PM,1.43,-8.07,-6.03,-0.03,-0.01,0.01
8:13:38 PM,1.15,-7.98,-5.72,0.02,-0.02,0.01
8:13:38 PM,1.17,-7.70,-5.75,0.00,-0.14,0.01
8:13:38 PM,1.07,-7.95,-6.04,0.06,0.07,0.01
8:13:38 PM,1.47,-8.14,-6.05,-0.01,0.02,0.01
8:13:39 PM,1.42,-7.96,-6.24,0.01,-0.07,0.01
8:13:39 PM,1.31,-8.02,-5.96,0.07,-0.02,0.01
8:13:39 PM,1.38,-8.10,-6.01,0.02,-0.03,0.01
8:13:39 PM,1.63,-8.14,-6.12,0.05,-0.08,0.01
8:13:39 PM,1.59,-8.04,-6.24,0.02,0.03,0.01
8:13:39 PM,1.34,-8.03,-5.91,-0.01,0.02,0.01
8:13:39 PM,1.52,-8.07,-5.67,0.03,-0.07,0.01
8:13:39 PM,1.30,-8.15,-5.83,0.02,0.01,0.01
8:13:39 PM,1.40,-8.24,-5.84,0.01,-0.09,0.01
8:13:39 PM,1.01,-8.01,-6.11,-0.02,0.09,0.01
8:13:40 PM,1.46,-8.07,-5.92,-0.02,-0.00,0.01
8:13:40 PM,1.16,-7.84,-6.05,0.04,0.02,0.01
8:13:40 PM,0.93,-8.08,-5.80,0.07,-0.02,0.01
8:13:40 PM,1.38,-8.09,-5.84,0.05,-0.02,0.01
8:13:40 PM,1.54,-8.10,-5.84,-0.01,-0.00,0.01
8:13:40 PM,0.89,-7.92,-6.26,0.03,0.03,0.01
8:13:40 PM,1.22,-8.15,-6.22,-0.01,-0.08,0.01
8:13:40 PM,1.78,-8.16,-6.03,-0.00,-0.08,0.01
8:13:40 PM,1.64,-8.09,-6.05,-0.02,-0.01,0.01
8:13:41 PM,1.36,-8.07,-5.90,-0.02,-0.04,0.01
8:13:41 PM,1.00,-8.00,-6.12,0.04,0.01,0.01
8:13:41 PM,1.51,-8.01,-6.03,0.02,-0.05,0.01
8:13:41 PM,1.33,-7.98,-5.93,-0.02,0.06,0.01
8:13:41 PM,1.16,-7.93,-5.88,0.03,-0.00,0.01
8:13:41 PM,1.56,-8.04,-5.85,-0.01,0.02,0.01
8:13:41 PM,1.30,-8.01,-6.13,0.00,-0.03,0.01
8:13:41 PM,1.25,-8.03,-6.12,0.01,0.04,0.01
8:13:41 PM,1.25,-7.99,-5.96,-0.02,0.04,0.01
8:13:41 PM,1.12,-7.91,-5.98,0.01,-0.01,0.01
8:13:42 PM,1.56,-8.04,-5.77,0.01,-0.07,0.01
8:13:42 PM,1.50,-8.11,-5.95,0.01,-0.07,0.01
8:13:42 PM,1.27,-8.02,-6.41,0.03,0.00,0.01
8:13:42 PM,1.50,-8.13,-6.04,0.02,0.07,0.01
8:13:42 PM,1.31,-7.91,-6.09,-0.00,-0.04,0.01
8:13:42 PM,1.19,-8.04,-5.92,0.05,0.07,0.01
8:13:42 PM,1.50,-7.91,-5.91,0.05,-0.06,0.01
8:13:42 PM,1.02,-7.86,-6.05,-0.02,0.06,0.01
8:13:42 PM,1.55,-8.11,-6.23,-0.06,0.02,0.01
8:13:43 PM,1.45,-8.00,-6.33,-0.01,0.01,0.01
8:13:43 PM,1.17,-7.93,-6.20,0.01,-0.03,0.01
8:13:43 PM,1.51,-7.98,-5.90,0.02,-0.05,0.01
8:13:43 PM,1.22,-7.94,-5.96,0.04,-0.04,0.01
8:13:43 PM,1.48,-8.11,-5.84,0.01,0.01,0.01
8:13:43 PM,1.60,-8.08,-5.78,0.02,0.01,0.01
8:13:43 PM,1.10,-8.11,-6.05,-0.01,0.00,0.01
8:13:43 PM,1.67,-8.03,-5.88,-0.01,0.04,0.01
8:13:43 PM,1.33,-7.98,-6.21,0.01,-0.02,0.01
8:13:43 PM,1.46,-8.00,-6.02,0.01,-0.06,0.01
8:13:44 PM,1.38,-7.91,-6.12,0.02,-0.02,0.01
8:13:44 PM,1.39,-7.92,-6.10,0.03,-0.04,0.01
8:13:44 PM,1.73,-7.92,-5.98,0.03,-0.04,0.01
8:13:44 PM,0.97,-7.99,-6.22,0.02,0.10,0.01
8:13:44 PM,1.40,-8.02,-6.03,0.03,0.00,0.01
8:13:44 PM,1.43,-8.02,-5.98,-0.02,0.02,0.01
8:13:44 PM,1.34,-8.09,-5.84,0.02,-0.00,0.01
8:13:44 PM,1.13,-7.99,-6.04,0.01,0.04,0.01
8:13:44 PM,1.39,-8.13,-5.98,0.02,-0.03,0.01
8:13:45 PM,1.26,-8.01,-6.11,0.01,0.06,0.01
8:13:45 PM,1.35,-7.95,-6.24,-0.01,0.03,0.01
8:13:45 PM,-0.53,-7.72,-6.97,-0.09,-0.19,0.01
8:13:45 PM,1.98,-7.99,-5.65,0.05,0.08,0.01
8:13:45 PM,1.41,-8.03,-5.60,0.01,-0.05,0.01
8:13:45 PM,1.58,-8.01,-6.06,0.01,-0.01,0.01
8:13:45 PM,0.92,-7.99,-6.20,0.06,0.04,0.01
8:13:45 PM,1.52,-8.01,-6.11,-0.00,0.01,0.01
8:13:45 PM,1.36,-7.95,-5.76,0.07,-0.06,0.01
8:13:45 PM,1.41,-7.87,-6.04,-0.01,-0.02,0.01
8:13:46 PM,1.82,-7.92,-6.24,-0.04,-0.06,0.01
8:13:46 PM,1.19,-7.92,-6.34,0.03,0.09,0.01
8:13:46 PM,1.01,-8.01,-6.26,-0.02,-0.04,0.01
8:13:46 PM,1.11,-8.04,-5.83,0.05,-0.03,0.01
8:13:46 PM,1.66,-7.89,-5.90,0.02,-0.10,0.01
8:13:46 PM,1.45,-8.05,-5.87,0.00,-0.03,0.01
8:13:46 PM,1.43,-7.99,-5.79,-0.01,-0.05,0.01
8:13:46 PM,1.02,-8.12,-6.15,-0.03,0.01,0.01
8:13:46 PM,1.33,-7.98,-6.22,-0.02,0.02,0.01
8:13:47 PM,1.26,-8.00,-5.86,0.02,0.01,0.01
8:13:47 PM,1.36,-7.88,-5.91,0.00,-0.05,0.01
8:13:47 PM,1.49,-7.93,-6.17,-0.00,-0.03,0.01
8:13:47 PM,1.21,-8.11,-5.99,0.02,0.07,0.01
8:13:47 PM,1.42,-8.09,-6.24,-0.02,-0.05,0.01
8:13:47 PM,1.36,-8.06,-6.05,0.05,0.01,0.01
8:13:47 PM,1.44,-7.90,-5.88,-0.01,-0.05,0.01
8:13:47 PM,1.24,-7.94,-5.93,0.01,-0.04,0.01
8:13:47 PM,1.42,-7.96,-6.06,-0.01,0.02,0.01
8:13:48 PM,1.37,-7.99,-6.17,0.01,-0.03,0.01
8:13:48 PM,1.31,-7.91,-6.20,0.03,-0.01,0.01
8:13:48 PM,1.34,-7.94,-6.27,0.02,-0.07,0.01
8:13:48 PM,0.94,-7.93,-6.07,0.23,-0.14,0.01
8:13:48 PM,1.80,-8.63,-5.32,-0.13,-0.22,0.01
8:13:48 PM,0.81,-7.92,-6.53,-0.04,0.01,0.01
8:13:48 PM,1.33,-8.20,-6.34,-0.04,-0.11,0.01
8:13:48 PM,1.57,-8.22,-5.70,0.04,0.02,0.01
8:13:48 PM,0.61,-8.03,-5.87,0.04,0.05,0.01
8:13:48 PM,0.72,-8.09,-5.90,0.00,-0.05,0.01
8:13:49 PM,0.91,-8.15,-6.28,0.01,0.11,0.01
8:13:49 PM,0.60,-8.16,-6.50,0.02,0.04,0.01
8:13:49 PM,0.80,-8.00,-6.30,-0.04,0.05,0.01
8:13:49 PM,0.86,-7.96,-6.15,0.03,-0.04,0.01
8:13:49 PM,1.12,-7.88,-6.54,-0.03,-0.01,0.01
8:13:49 PM,0.99,-7.90,-6.33,-0.01,0.05,0.01
8:13:49 PM,1.47,-8.09,-6.31,-0.02,0.01,0.01
8:13:49 PM,1.38,-7.95,-6.40,-0.02,-0.10,0.01
8:13:49 PM,1.11,-7.74,-6.48,-0.00,-0.09,0.01
8:13:50 PM,0.91,-7.96,-6.26,-0.01,-0.00,0.01
8:13:50 PM,1.15,-7.92,-6.22,-0.04,0.03,0.01
8:13:50 PM,0.85,-8.01,-6.17,0.01,-0.03,0.01
8:13:50 PM,1.11,-8.02,-5.90,0.02,-0.01,0.01
8:13:50 PM,0.60,-8.01,-6.28,0.00,0.00,0.01
8:13:50 PM,1.24,-8.09,-6.25,-0.03,0.03,0.01
8:13:50 PM,1.15,-7.85,-6.43,-0.00,-0.01,0.01
8:13:50 PM,1.11,-7.94,-6.14,0.04,-0.05,0.01
8:13:50 PM,1.27,-7.82,-6.11,0.02,-0.02,0.01
8:13:50 PM,1.10,-8.08,-5.85,0.02,-0.03,0.01
8:13:51 PM,1.25,-8.16,-5.81,0.03,-0.04,0.01
8:13:51 PM,0.98,-7.99,-6.33,-0.02,-0.03,0.01
8:13:51 PM,0.69,-8.02,-6.18,0.02,0.03,0.01
8:13:51 PM,0.99,-7.94,-6.26,-0.00,0.01,0.01
8:13:51 PM,0.82,-7.91,-6.23,-0.05,0.13,0.01
8:13:51 PM,1.01,-8.02,-6.08,0.00,0.01,0.01
8:13:51 PM,1.03,-8.04,-6.11,-0.01,-0.08,0.01
8:13:51 PM,0.95,-7.93,-6.41,-0.01,-0.02,0.01
8:13:51 PM,1.06,-7.89,-6.34,-0.00,-0.01,0.01
8:13:52 PM,0.98,-7.83,-6.38,0.01,-0.05,0.01
8:13:52 PM,1.10,-8.06,-6.02,0.02,0.01,0.01
8:13:52 PM,0.89,-8.20,-6.05,0.02,0.00,0.01
8:13:52 PM,1.04,-7.96,-6.33,-0.00,-0.07,0.01
8:13:52 PM,0.91,-7.89,-6.34,0.01,-0.08,0.01
8:13:52 PM,1.22,-7.92,-6.20,0.03,-0.03,0.01
8:13:52 PM,1.27,-8.00,-6.05,-0.01,0.00,0.01
8:13:52 PM,0.86,-8.08,-6.22,0.03,-0.04,0.01
8:13:52 PM,0.74,-7.96,-6.39,0.01,-0.03,0.01
8:13:52 PM,1.29,-7.86,-6.44,-0.02,-0.01,0.01
8:13:53 PM,0.92,-7.93,-6.27,0.01,-0.03,0.01
8:13:53 PM,0.78,-7.92,-6.13,0.04,0.05,0.01
8:13:53 PM,0.75,-7.75,-6.45,0.01,-0.05,0.01
8:13:53 PM,1.11,-8.03,-6.39,-0.02,-0.00,0.01
8:13:53 PM,0.91,-7.90,-6.42,0.02,-0.06,0.01
8:13:53 PM,0.86,-7.89,-6.33,0.02,-0.06,0.01
8:13:53 PM,1.15,-8.01,-6.24,0.00,0.01,0.01
8:13:53 PM,0.96,-7.84,-6.32,0.01,-0.06,0.01
8:13:53 PM,1.06,-7.86,-6.11,0.02,0.02,0.01
8:13:54 PM,1.12,-8.03,-6.26,0.01,-0.05,0.01
8:13:54 PM,0.98,-7.84,-6.18,0.01,-0.08,0.01
8:13:54 PM,0.81,-8.04,-6.38,-0.01,-0.02,0.01
8:13:54 PM,1.28,-7.94,-6.32,0.03,-0.07,0.01
8:13:54 PM,1.10,-7.94,-6.31,-0.03,-0.00,0.01
8:13:54 PM,1.32,-7.98,-6.27,-0.01,-0.06,0.01
8:13:54 PM,0.80,-7.76,-6.44,0.02,0.04,0.01
8:13:54 PM,0.65,-8.04,-5.95,0.11,0.17,0.01
8:13:54 PM,1.24,-7.91,-5.86,0.02,-0.06,0.01
8:13:54 PM,1.12,-7.68,-6.41,0.11,-0.11,0.01
8:13:55 PM,0.98,-7.86,-7.03,0.12,-0.13,0.01
8:13:55 PM,0.51,-7.80,-6.34,0.01,-0.03,0.01
8:13:55 PM,0.83,-7.82,-6.27,0.04,0.06,0.01
8:13:55 PM,0.79,-7.89,-6.11,0.01,0.03,0.01
8:13:55 PM,0.72,-8.16,-6.06,-0.01,-0.01,0.01
8:13:55 PM,1.01,-8.01,-6.47,-0.04,0.01,0.01
8:13:55 PM,0.36,-8.27,-6.35,0.04,0.13,0.01
8:13:55 PM,1.79,-7.45,-5.42,0.03,0.02,0.01
8:13:55 PM,0.85,-8.37,-5.75,0.09,-0.05,0.01
8:13:56 PM,0.30,-8.15,-5.73,-0.03,0.06,0.01
8:13:56 PM,0.94,-8.23,-5.68,0.02,0.07,0.01
8:13:56 PM,1.19,-8.23,-5.74,0.02,-0.04,0.01
8:13:56 PM,0.51,-8.47,-5.90,-0.01,-0.06,0.01
8:13:56 PM,0.72,-8.33,-5.37,0.05,-0.00,0.01
8:13:56 PM,0.62,-8.19,-5.38,0.09,-0.06,0.01
8:13:56 PM,0.56,-8.10,-6.03,-0.01,-0.09,0.01
8:13:56 PM,0.81,-8.38,-5.96,-0.01,0.03,0.01
8:13:56 PM,0.82,-8.37,-5.68,0.01,-0.07,0.01
8:13:56 PM,0.73,-8.19,-5.86,-0.04,-0.09,0.01
8:13:57 PM,0.40,-8.34,-6.14,-0.04,0.12,0.01
8:13:57 PM,0.52,-8.45,-5.72,-0.02,-0.06,0.01
8:13:57 PM,0.87,-8.21,-5.86,-0.01,-0.06,0.01
8:13:57 PM,0.75,-8.26,-5.83,0.03,-0.04,0.01
8:13:57 PM,0.65,-8.15,-6.16,0.00,-0.03,0.01
8:13:57 PM,0.54,-8.17,-5.85,0.02,-0.03,0.01
8:13:57 PM,0.48,-8.20,-5.77,0.02,0.06,0.01
8:13:57 PM,0.64,-8.26,-5.81,-0.03,-0.03,0.01
8:13:57 PM,0.38,-8.19,-6.20,0.01,0.04,0.01
8:13:58 PM,0.69,-8.11,-6.30,-0.01,0.03,0.01
8:13:58 PM,0.59,-8.25,-6.04,-0.03,-0.03,0.01
8:13:58 PM,0.74,-8.31,-6.10,-0.01,0.04,0.01
8:13:58 PM,0.72,-8.13,-5.94,-0.03,-0.01,0.01
8:13:58 PM,0.62,-8.08,-6.05,-0.02,-0.03,0.01
8:13:58 PM,0.71,-7.75,-5.66,-0.13,-0.04,0.01
8:13:58 PM,0.65,-8.19,-5.93,0.02,0.03,0.01
8:13:58 PM,0.81,-8.31,-5.90,0.02,-0.00,0.01
8:13:58 PM,0.76,-8.02,-6.09,-0.00,0.02,0.01
8:13:58 PM,0.73,-8.29,-5.98,0.13,0.09,0.01
8:13:59 PM,0.82,-8.10,-5.93,-0.01,-0.06,0.01
8:13:59 PM,0.90,-8.40,-5.86,0.00,0.00,0.01
8:13:59 PM,0.60,-8.37,-5.75,-0.00,-0.02,0.01
8:13:59 PM,0.46,-8.08,-6.18,-0.02,0.07,0.01
8:13:59 PM,0.74,-8.16,-6.14,0.02,-0.01,0.01
8:13:59 PM,0.69,-8.04,-6.13,-0.01,-0.02,0.01
8:13:59 PM,0.57,-8.11,-5.76,0.01,0.02,0.01
8:13:59 PM,0.84,-8.09,-5.76,-0.03,0.06,0.01
8:13:59 PM,0.08,-7.84,-6.22,0.05,-0.12,0.01
8:14:00 PM,0.87,-8.09,-6.22,-0.01,-0.14,0.01
8:14:00 PM,1.07,-8.43,-5.68,0.00,-0.06,0.01
8:14:00 PM,0.69,-7.84,-6.23,-0.01,-0.03,0.01
8:14:00 PM,0.45,-8.11,-5.83,-0.01,-0.01,0.01
8:14:00 PM,1.32,-8.19,-5.59,-0.02,-0.10,0.01
8:14:00 PM,0.73,-8.12,-6.18,-0.02,-0.03,0.01
8:14:00 PM,1.10,-8.28,-6.37,-0.05,0.08,0.01
8:14:00 PM,0.87,-8.16,-6.18,-0.03,0.04,0.01
8:14:00 PM,1.09,-8.12,-5.80,0.02,-0.01,0.01
8:14:01 PM,0.99,-8.06,-5.63,0.04,-0.00,0.01
8:14:01 PM,0.85,-8.15,-5.85,-0.02,-0.03,0.01
8:14:01 PM,0.68,-8.00,-6.05,0.05,-0.05,0.01
8:14:01 PM,0.78,-8.12,-6.18,-0.03,0.05,0.01
8:14:01 PM,1.07,-8.17,-6.19,0.01,-0.08,0.01
8:14:01 PM,0.65,-7.98,-6.10,0.02,0.02,0.01
8:14:01 PM,1.11,-8.05,-6.09,0.01,-0.07,0.01
8:14:01 PM,0.70,-8.16,-5.99,0.03,0.02,0.01
8:14:01 PM,0.93,-7.99,-6.21,0.00,-0.01,0.01
8:14:01 PM,1.10,-8.05,-6.19,-0.02,-0.00,0.01
8:14:02 PM,0.59,-8.00,-5.94,0.04,-0.09,0.01
8:14:02 PM,0.85,-8.12,-5.76,0.00,-0.00,0.01
8:14:02 PM,0.76,-8.13,-5.84,0.04,-0.07,0.01
8:14:02 PM,0.71,-8.06,-6.27,-0.01,0.01,0.01
8:14:02 PM,0.62,-7.96,-6.35,-0.02,0.08,0.01
8:14:02 PM,1.06,-8.10,-6.01,-0.04,-0.15,0.01
8:14:02 PM,0.56,-8.18,-6.10,0.01,0.07,0.01
8:14:02 PM,1.20,-8.16,-6.00,0.04,-0.01,0.01
8:14:02 PM,0.98,-7.98,-6.14,0.04,-0.06,0.01
8:14:03 PM,0.84,-7.99,-6.02,0.02,0.03,0.01
8:14:03 PM,0.97,-7.98,-6.15,-0.01,0.02,0.01
8:14:03 PM,0.59,-8.08,-6.48,-0.01,-0.09,0.01
8:14:03 PM,0.62,-8.09,-6.42,-0.00,0.05,0.01
8:14:03 PM,0.93,-7.91,-6.15,0.04,-0.11,0.01
8:14:03 PM,1.07,-7.99,-5.87,0.04,0.03,0.01
8:14:03 PM,0.87,-8.02,-6.02,0.03,0.01,0.01
8:14:03 PM,0.85,-8.21,-6.24,0.03,-0.02,0.01
8:14:03 PM,0.62,-8.03,-6.25,0.01,0.04,0.01
8:14:03 PM,0.84,-8.21,-5.90,0.00,0.01,0.01
8:14:04 PM,0.85,-8.02,-5.93,0.01,-0.00,0.01
8:14:04 PM,0.70,-7.98,-6.22,0.05,-0.02,0.01
8:14:04 PM,0.91,-8.03,-6.34,-0.02,0.06,0.01
8:14:04 PM,1.03,-8.06,-6.63,-0.04,-0.07,0.01
8:14:04 PM,0.86,-8.11,-5.94,0.04,0.04,0.01
8:14:04 PM,1.32,-8.04,-5.65,0.02,-0.09,0.01
8:14:04 PM,0.79,-8.01,-6.04,0.01,-0.05,0.01
8:14:04 PM,0.87,-8.07,-6.22,0.01,-0.01,0.01
8:14:04 PM,0.92,-8.10,-6.34,0.01,0.03,0.01
8:14:05 PM,0.63,-8.04,-6.34,0.02,-0.02,0.01
8:14:05 PM,1.20,-8.03,-5.95,0.02,-0.02,0.01
8:14:05 PM,0.85,-7.89,-6.13,0.02,-0.01,0.01
8:14:05 PM,0.90,-7.97,-6.03,-0.00,-0.12,0.01
8:14:05 PM,0.89,-8.19,-5.96,0.01,-0.05,0.01
8:14:05 PM,1.28,-8.06,-6.29,-0.00,-0.02,0.01
8:14:05 PM,0.95,-8.08,-6.22,0.02,-0.06,0.01
8:14:05 PM,1.02,-7.91,-6.22,0.03,-0.02,0.01
8:14:05 PM,1.12,-8.07,-6.05,0.01,-0.08,0.01
8:14:05 PM,0.79,-8.02,-6.14,0.03,-0.03,0.01
8:14:06 PM,1.06,-8.15,-6.30,0.00,-0.02,0.01
8:14:06 PM,1.09,-8.05,-6.00,0.02,-0.07,0.01
8:14:06 PM,0.93,-7.99,-6.09,0.00,0.03,0.01
8:14:06 PM,0.81,-8.04,-6.07,0.01,-0.01,0.01
8:14:06 PM,1.09,-8.03,-6.21,0.03,0.00,0.01
8:14:06 PM,0.68,-7.94,-6.29,0.02,0.06,0.01
8:14:06 PM,0.56,-8.12,-6.18,-0.01,-0.00,0.01
8:14:06 PM,0.85,-8.03,-6.07,-0.01,0.03,0.01
8:14:06 PM,0.85,-8.05,-6.37,-0.03,-0.03,0.01
8:14:07 PM,1.02,-8.11,-6.11,0.01,-0.00,0.01
8:14:07 PM,1.21,-8.00,-5.90,0.00,-0.08,0.01
8:14:07 PM,0.61,-7.90,-6.08,0.05,0.07,0.01
8:14:07 PM,1.04,-8.09,-5.98,0.03,-0.01,0.01
8:14:07 PM,1.06,-7.96,-6.16,0.00,-0.03,0.01
8:14:07 PM,0.75,-8.14,-5.91,-0.01,0.01,0.01
8:14:07 PM,0.92,-7.92,-6.19,-0.01,-0.01,0.01
8:14:07 PM,0.81,-8.36,-6.76,-0.06,-0.03,0.01
8:14:07 PM,0.86,-7.98,-6.36,0.04,-0.03,0.01
8:14:07 PM,0.85,-7.94,-6.04,0.02,-0.03,0.01
8:14:08 PM,0.95,-7.81,-6.19,0.03,-0.03,0.01
8:14:08 PM,0.96,-7.97,-6.34,0.00,0.02,0.01
8:14:08 PM,1.16,-7.93,-6.33,0.01,-0.11,0.01
8:14:08 PM,0.68,-8.05,-6.27,0.01,0.04,0.01
8:14:08 PM,1.27,-7.89,-6.24,0.04,-0.05,0.01
8:14:08 PM,0.99,-7.86,-6.36,0.02,-0.05,0.01
8:14:08 PM,1.17,-7.98,-6.42,-0.00,-0.03,0.01
8:14:08 PM,0.96,-7.88,-6.41,0.01,-0.04,0.01
8:14:08 PM,0.93,-7.91,-6.29,0.01,0.05,0.01
8:14:09 PM,1.30,-7.87,-6.23,0.05,-0.04,0.01
8:14:09 PM,0.89,-8.07,-5.79,0.01,0.04,0.01
8:14:09 PM,0.93,-7.99,-6.27,-0.02,0.03,0.01
8:14:09 PM,0.86,-8.15,-6.13,0.00,-0.02,0.01
8:14:09 PM,0.90,-7.97,-6.15,0.04,-0.00,0.01
8:14:09 PM,1.06,-8.03,-6.12,-0.02,-0.16,0.01
8:14:09 PM,0.85,-8.15,-6.27,0.01,0.03,0.01
8:14:09 PM,0.68,-8.15,-6.11,0.00,0.02,0.01
8:14:09 PM,0.87,-7.88,-6.36,-0.01,0.03,0.01
8:14:09 PM,0.79,-7.85,-6.30,-0.02,-0.03,0.01
8:14:10 PM,0.94,-7.92,-6.38,-0.04,0.04,0.01
8:14:10 PM,1.09,-8.00,-6.35,-0.02,0.00,0.01
8:14:10 PM,0.99,-8.10,-6.24,0.00,-0.06,0.01
8:14:10 PM,0.90,-7.92,-6.40,-0.02,0.01,0.01
8:14:10 PM,1.08,-7.83,-6.37,-0.01,-0.05,0.01
8:14:10 PM,0.96,-7.90,-6.29,0.00,-0.03,0.01
8:14:10 PM,1.26,-7.92,-6.08,-0.01,-0.13,0.01
8:14:10 PM,0.70,-8.06,-6.35,0.04,-0.24,0.01
8:14:10 PM,0.81,-7.87,-6.36,-0.01,0.08,0.01
8:14:11 PM,0.92,-7.92,-6.54,-0.04,0.03,0.01
8:14:11 PM,1.61,-8.25,-5.74,0.06,-0.18,0.01
8:14:11 PM,0.83,-7.84,-5.91,0.10,0.02,0.01
8:14:11 PM,0.83,-7.91,-6.18,0.02,-0.10,0.01
8:14:11 PM,1.16,-8.07,-6.33,0.03,0.04,0.01
8:14:11 PM,0.94,-7.91,-6.55,0.02,-0.10,0.01
8:14:11 PM,0.98,-7.93,-6.22,0.03,0.02,0.01
8:14:11 PM,1.09,-7.91,-6.09,0.02,0.00,0.01
8:14:11 PM,0.85,-7.81,-6.08,0.05,-0.03,0.01
8:14:12 PM,0.91,-8.02,-6.21,0.03,-0.01,0.01
8:14:12 PM,0.91,-7.90,-6.45,0.05,-0.10,0.01
8:14:12 PM,0.93,-7.97,-6.41,-0.02,-0.00,0.01
8:14:12 PM,0.87,-7.96,-6.25,0.01,0.01,0.01
8:14:12 PM,1.09,-7.99,-6.29,-0.01,-0.04,0.01
8:14:12 PM,0.87,-7.91,-6.35,-0.02,0.03,0.01
8:14:12 PM,0.74,-7.72,-6.44,0.02,-0.01,0.01
8:14:12 PM,1.13,-7.89,-6.21,0.03,-0.00,0.01
8:14:12 PM,1.04,-8.06,-6.04,0.03,-0.03,0.01
8:14:12 PM,0.75,-7.95,-6.14,0.02,0.05,0.01
8:14:13 PM,0.87,-7.98,-6.26,0.03,-0.01,0.01
8:14:13 PM,0.87,-7.93,-6.48,-0.01,0.01,0.01
8:14:13 PM,1.15,-7.94,-6.44,-0.03,0.02,0.01
8:14:13 PM,0.90,-7.89,-6.40,0.01,0.05,0.01
8:14:13 PM,0.98,-7.92,-6.09,0.05,-0.02,0.01
8:14:13 PM,1.07,-8.04,-5.94,0.05,0.02,0.01
8:14:13 PM,1.27,-7.99,-6.29,-0.00,0.08,0.01
8:14:13 PM,0.94,-7.87,-6.58,-0.05,0.10,0.01
8:14:13 PM,1.47,-7.79,-6.65,0.01,0.00,0.01
8:14:14 PM,1.07,-7.99,-6.03,0.02,-0.02,0.01
8:14:14 PM,1.41,-7.84,-6.08,0.01,-0.06,0.01
8:14:14 PM,1.30,-7.90,-6.14,0.00,-0.06,0.01
8:14:14 PM,1.01,-7.90,-6.35,0.01,-0.03,0.01
8:14:14 PM,1.06,-8.09,-6.34,-0.01,-0.07,0.01
8:14:14 PM,0.94,-8.00,-6.39,-0.02,0.01,0.01
8:14:14 PM,1.10,-7.99,-6.35,-0.02,0.06,0.01
8:14:14 PM,0.84,-7.79,-6.59,-0.01,-0.09,0.01
8:14:14 PM,1.24,-7.81,-6.19,0.02,-0.04,0.01
8:14:14 PM,1.06,-7.95,-6.09,-0.01,0.02,0.01
8:14:15 PM,1.06,-7.93,-6.48,-0.01,-0.03,0.01
8:14:15 PM,1.09,-7.92,-6.34,0.01,-0.00,0.01
8:14:15 PM,1.15,-7.74,-6.45,0.06,0.05,0.01
8:14:15 PM,1.18,-7.90,-6.16,0.01,-0.04,0.01
8:14:15 PM,0.74,-7.88,-6.16,0.02,-0.06,0.01
8:14:15 PM,1.02,-7.92,-5.93,-0.01,-0.02,0.01
8:14:15 PM,1.13,-7.88,-6.44,0.01,-0.02,0.01
8:14:15 PM,0.86,-7.90,-6.41,0.01,0.00,0.01
8:14:15 PM,1.26,-7.93,-6.19,-0.01,0.03,0.01
8:14:16 PM,1.31,-7.81,-6.28,0.02,-0.03,0.01
8:14:16 PM,0.99,-7.87,-6.46,-0.02,-0.08,0.01
8:14:16 PM,0.95,-7.98,-6.39,0.02,-0.03,0.01
8:14:16 PM,1.11,-7.76,-6.44,0.03,0.02,0.01
8:14:16 PM,0.96,-7.83,-6.39,-0.01,0.06,0.01
8:14:16 PM,1.34,-7.92,-6.30,0.01,-0.05,0.01
8:14:16 PM,0.88,-8.05,-6.09,0.13,-0.06,0.01
8:14:16 PM,1.39,-8.35,-7.26,0.63,0.28,0.01
8:14:16 PM,0.81,-7.87,-5.72,0.10,0.03,0.01
8:14:16 PM,0.70,-7.89,-6.25,-0.02,0.03,0.01
8:14:17 PM,1.50,-8.04,-5.70,0.09,-0.05,0.01
8:14:17 PM,0.85,-8.34,-5.58,0.04,0.05,0.01
8:14:17 PM,0.97,-7.86,-5.62,0.02,-0.08,0.01
8:14:17 PM,1.02,-8.22,-6.12,-0.01,-0.05,0.01
8:14:17 PM,0.83,-8.14,-5.61,0.10,-0.07,0.01
8:14:17 PM,1.14,-8.04,-5.74,0.00,-0.10,0.01
8:14:17 PM,0.72,-8.24,-6.00,-0.05,0.05,0.01
8:14:17 PM,1.11,-8.22,-5.82,-0.03,-0.05,0.01
8:14:17 PM,1.03,-8.01,-5.78,0.04,0.02,0.01
8:14:18 PM,1.20,-8.11,-6.12,-0.04,0.04,0.01
8:14:18 PM,1.02,-8.02,-6.33,0.00,-0.00,0.01
8:14:18 PM,1.52,-7.86,-6.30,0.00,-0.21,0.01
8:14:18 PM,1.32,-8.05,-5.96,-0.04,-0.04,0.01
8:14:18 PM,0.62,-8.20,-6.02,-0.02,0.03,0.01
8:14:18 PM,0.87,-8.15,-5.90,-0.03,-0.08,0.01
8:14:18 PM,1.24,-7.98,-6.34,0.02,-0.05,0.01
8:14:18 PM,0.94,-8.18,-6.37,-0.01,0.00,0.01
8:14:18 PM,0.74,-8.15,-6.10,0.08,0.16,0.01
8:14:18 PM,1.21,-8.22,-5.71,0.04,-0.05,0.01
8:14:19 PM,1.06,-8.11,-5.81,-0.01,-0.06,0.01
8:14:19 PM,0.62,-8.00,-5.92,0.04,-0.13,0.01
8:14:19 PM,1.54,-8.08,-5.30,0.48,-0.34,0.01
8:14:19 PM,0.58,-8.20,-5.44,-0.01,0.04,0.01
8:14:19 PM,0.83,-8.45,-5.85,-0.06,0.02,0.01
8:14:19 PM,0.55,-8.15,-5.88,0.06,-0.08,0.01
8:14:19 PM,0.62,-8.21,-6.03,-0.05,0.20,0.01
8:14:19 PM,0.41,-8.48,-5.41,0.11,-0.04,0.01
8:14:19 PM,0.37,-8.32,-5.74,0.06,0.28,0.01
8:14:20 PM,1.20,-9.24,-6.40,1.12,0.86,0.01
8:14:20 PM,0.11,-8.23,-4.87,0.17,0.27,0.01
8:14:20 PM,2.10,-8.63,-3.56,0.17,-0.01,0.01
8:14:20 PM,0.84,-8.94,-4.36,-0.07,0.21,0.01
8:14:20 PM,0.76,-8.51,-4.71,-0.01,0.06,0.01
8:14:20 PM,0.75,-8.84,-4.91,-0.05,0.48,0.01
8:14:20 PM,0.61,-8.94,-4.73,-0.09,-0.22,0.01
8:14:20 PM,0.81,-8.77,-5.03,-0.08,-0.07,0.01
8:14:20 PM,0.92,-8.89,-4.83,0.00,0.06,0.01
8:14:20 PM,1.20,-8.54,-4.72,-0.01,-0.03,0.01
8:14:21 PM,1.15,-8.46,-4.70,-0.02,-0.15,0.01
8:14:21 PM,0.98,-8.59,-4.98,-0.04,0.05,0.01
8:14:21 PM,1.11,-8.72,-5.36,-0.09,0.03,0.01
8:14:21 PM,1.48,-8.56,-5.20,-0.06,-0.06,0.01
8:14:21 PM,1.07,-8.09,-4.98,0.18,-0.02,0.01
8:14:21 PM,1.47,-8.77,-4.58,0.05,0.01,0.01
8:14:21 PM,0.95,-8.59,-5.97,-0.33,-0.28,0.01
8:14:21 PM,1.76,-8.78,-5.15,0.01,0.06,0.01
8:14:21 PM,1.13,-8.31,-5.18,0.01,-0.09,0.01
8:14:22 PM,1.03,-8.33,-5.22,0.07,-0.02,0.01
8:14:22 PM,2.19,-8.15,-5.02,0.01,0.03,0.01
8:14:22 PM,1.23,-8.33,-5.58,-0.01,0.02,0.01
8:14:22 PM,0.79,-8.55,-5.22,0.02,0.01,0.01
8:14:22 PM,1.07,-8.40,-5.27,-0.01,-0.00,0.01
8:14:22 PM,1.27,-8.39,-5.27,-0.01,0.04,0.01
8:14:22 PM,1.40,-7.64,-5.35,0.04,-0.07,0.01
8:14:22 PM,1.28,-8.34,-5.62,-0.07,-0.07,0.01
8:14:22 PM,0.71,-8.26,-5.55,0.07,-0.04,0.01
8:14:23 PM,1.01,-8.47,-5.31,-0.03,-0.07,0.01
8:14:23 PM,1.25,-8.50,-5.55,-0.11,-0.06,0.01
8:14:23 PM,0.75,-8.32,-6.12,0.08,-0.06,0.01
8:14:23 PM,1.10,-8.16,-5.54,0.09,-0.08,0.01
8:14:23 PM,1.51,-8.45,-5.31,0.10,-0.10,0.01
8:14:23 PM,1.33,-8.02,-5.48,0.18,-0.27,0.01
8:14:23 PM,1.17,-8.15,-5.15,0.01,-0.21,0.01
8:14:23 PM,1.53,-8.05,-4.92,0.13,-0.15,0.01
8:14:23 PM,0.98,-8.17,-5.57,0.02,-0.10,0.01
8:14:23 PM,1.40,-8.28,-5.72,0.03,-0.16,0.01
8:14:24 PM,1.39,-7.85,-5.39,-0.06,-0.24,0.01
8:14:24 PM,1.33,-8.12,-5.60,-0.00,-0.11,0.01
8:14:24 PM,1.21,-8.48,-5.50,0.00,-0.01,0.01
8:14:24 PM,0.63,-8.41,-5.39,0.12,-0.01,0.01
8:14:24 PM,1.32,-8.11,-5.41,0.08,-0.01,0.01
8:14:24 PM,0.85,-8.39,-5.21,0.06,0.01,0.01
8:14:24 PM,0.96,-8.28,-5.54,0.01,0.09,0.01
8:14:24 PM,0.82,-8.39,-5.76,-0.00,0.06,0.01
8:14:24 PM,1.05,-8.26,-5.44,0.02,-0.06,0.01
8:14:25 PM,1.24,-8.23,-5.61,-0.03,-0.10,0.01
8:14:25 PM,1.13,-8.28,-5.53,0.01,-0.07,0.01
8:14:25 PM,0.68,-8.20,-5.75,0.02,0.04,0.01
8:14:25 PM,0.81,-8.62,-5.15,0.02,0.06,0.01
8:14:25 PM,1.02,-8.34,-5.47,0.04,-0.13,0.01
8:14:25 PM,1.25,-8.46,-5.37,-0.01,-0.01,0.01
8:14:25 PM,1.03,-8.37,-5.49,-0.03,0.06,0.01
8:14:25 PM,1.36,-8.32,-5.79,-0.03,-0.10,0.01
8:14:25 PM,0.98,-8.31,-5.50,0.02,-0.03,0.01
8:14:25 PM,1.20,-8.30,-5.17,0.02,-0.02,0.01
8:14:26 PM,1.34,-8.61,-5.09,0.04,0.04,0.01
8:14:26 PM,0.80,-8.29,-5.24,0.11,0.03,0.01
8:14:26 PM,0.94,-8.34,-5.14,0.10,0.01,0.01
8:14:26 PM,1.20,-8.52,-5.47,-0.02,0.04,0.01
8:14:26 PM,1.13,-8.59,-5.46,0.04,-0.03,0.01
8:14:26 PM,2.02,-8.39,-4.63,-0.04,-0.05,0.01
8:14:26 PM,0.73,-8.54,-5.26,0.00,-0.06,0.01
8:14:26 PM,0.20,-8.33,-5.96,0.01,0.08,0.01
8:14:26 PM,1.05,-8.31,-5.85,-0.00,-0.03,0.01
8:14:27 PM,0.88,-8.46,-5.45,0.02,0.03,0.01
8:14:27 PM,0.98,-8.37,-5.16,-0.01,-0.00,0.01
8:14:27 PM,0.99,-8.33,-5.48,-0.01,-0.03,0.01
8:14:27 PM,0.93,-8.37,-5.37,-0.02,-0.02,0.01
8:14:27 PM,1.00,-8.17,-5.86,-0.01,-0.01,0.01
8:14:27 PM,0.94,-7.98,-5.52,0.13,-0.02,0.01
8:14:27 PM,1.25,-8.22,-5.80,-0.06,-0.03,0.01
8:14:27 PM,0.92,-8.22,-5.88,-0.02,0.05,0.01
8:14:27 PM,1.13,-8.20,-5.94,-0.05,0.04,0.01
8:14:27 PM,1.07,-8.22,-5.96,-0.03,-0.02,0.01
8:14:28 PM,1.29,-8.23,-5.51,-0.01,-0.03,0.01
8:14:28 PM,0.80,-8.12,-5.65,0.05,0.00,0.01
8:14:28 PM,1.02,-8.27,-5.78,-0.03,0.02,0.01
8:14:28 PM,1.01,-8.22,-6.00,0.01,0.03,0.01
8:14:28 PM,1.34,-8.17,-5.70,0.03,-0.08,0.01
8:14:28 PM,1.00,-8.14,-5.99,-0.02,0.13,0.01
8:14:28 PM,1.24,-8.36,-5.61,0.00,0.02,0.01
8:14:28 PM,1.08,-8.11,-5.80,-0.03,0.15,0.01
8:14:28 PM,1.14,-8.13,-5.93,-0.03,-0.14,0.01
8:14:29 PM,0.65,-8.26,-5.93,0.02,0.10,0.01
8:14:29 PM,1.42,-8.22,-5.78,-0.02,-0.04,0.01
8:14:29 PM,1.04,-8.05,-5.56,0.00,-0.03,0.01
8:14:29 PM,0.99,-8.11,-5.63,-0.03,0.01,0.01
8:14:29 PM,1.06,-8.17,-5.96,0.00,-0.04,0.01
8:14:29 PM,1.00,-8.31,-5.86,0.01,0.00,0.01
8:14:29 PM,0.94,-8.04,-6.18,0.01,-0.03,0.01
8:14:29 PM,1.35,-8.38,-5.70,-0.00,-0.03,0.01
8:14:29 PM,1.51,-8.32,-5.61,0.03,-0.06,0.01
8:14:29 PM,1.36,-8.17,-5.76,0.00,-0.04,0.01
8:14:30 PM,0.97,-8.15,-5.71,0.02,0.03,0.01
8:14:30 PM,1.60,-8.16,-6.26,0.09,-0.10,0.01
8:14:30 PM,0.80,-8.20,-5.63,-0.10,0.07,0.01
8:14:30 PM,1.62,-8.43,-5.67,0.00,0.03,0.01
8:14:30 PM,1.20,-8.00,-6.21,0.13,0.01,0.01
8:14:30 PM,0.75,-8.30,-5.73,0.02,0.17,0.01
8:14:30 PM,0.95,-8.08,-5.84,-0.02,0.13,0.01
8:14:30 PM,0.87,-8.09,-5.31,0.06,0.05,0.01
8:14:30 PM,0.94,-8.07,-5.62,-0.04,-0.02,0.01
8:14:31 PM,1.04,-8.23,-6.02,-0.01,0.04,0.01
8:14:31 PM,0.57,-7.42,-7.81,-0.22,0.12,0.01
8:14:31 PM,1.57,-8.30,-6.03,-0.04,-0.20,0.01
8:14:31 PM,0.86,-8.08,-5.88,0.01,0.01,0.01
8:14:31 PM,0.74,-8.28,-5.82,-0.02,0.05,0.01
8:14:31 PM,1.00,-8.18,-6.08,-0.04,0.07,0.01
8:14:31 PM,0.82,-8.13,-6.14,0.07,0.04,0.01
8:14:31 PM,1.10,-8.39,-5.33,0.03,-0.02,0.01
8:14:31 PM,1.49,-8.05,-5.52,0.03,-0.02,0.01
8:14:31 PM,0.99,-8.15,-6.09,-0.03,0.00,0.01
8:14:32 PM,0.94,-8.20,-5.97,-0.01,0.00,0.01
8:14:32 PM,1.07,-8.10,-6.05,0.01,0.00,0.01
8:14:32 PM,1.09,-7.99,-6.08,-0.06,0.07,0.01
8:14:32 PM,0.96,-8.14,-5.84,0.02,-0.05,0.01
8:14:32 PM,1.38,-8.32,-5.49,0.01,0.07,0.01
8:14:32 PM,1.22,-8.10,-5.63,0.04,-0.12,0.01
8:14:32 PM,1.15,-8.07,-5.81,0.03,-0.02,0.01
8:14:32 PM,1.29,-8.10,-5.65,-0.01,-0.10,0.01
8:14:32 PM,1.19,-8.19,-5.78,0.01,-0.06,0.01
8:14:33 PM,1.20,-8.12,-5.92,-0.02,0.09,0.01
8:14:33 PM,1.19,-8.28,-5.83,0.01,-0.05,0.01
8:14:33 PM,0.77,-8.13,-5.90,-0.01,-0.00,0.01
8:14:33 PM,1.03,-8.16,-5.96,0.01,0.00,0.01
8:14:33 PM,1.36,-8.16,-5.79,0.00,-0.06,0.01
8:14:33 PM,1.14,-8.14,-5.77,0.02,0.01,0.01
8:14:33 PM,1.61,-8.24,-6.02,-0.02,-0.00,0.01
8:14:33 PM,0.44,-8.26,-6.19,-0.00,0.12,0.01
8:14:33 PM,1.03,-8.01,-6.25,0.02,-0.10,0.01
8:14:33 PM,1.16,-8.19,-6.03,-0.00,-0.03,0.01
8:14:34 PM,1.19,-8.09,-5.83,0.04,0.06,0.01
8:14:34 PM,0.93,-8.09,-5.56,0.07,-0.04,0.01
8:14:34 PM,1.38,-8.25,-5.58,0.00,-0.00,0.01
8:14:34 PM,1.18,-8.28,-5.39,0.01,0.05,0.01
8:14:34 PM,1.60,-8.20,-5.59,0.02,-0.02,0.01
8:14:34 PM,1.09,-7.93,-5.87,0.03,0.01,0.01
8:14:34 PM,1.25,-8.26,-5.49,0.10,0.06,0.01
8:14:34 PM,1.53,-8.31,-5.49,0.03,0.05,0.01
8:14:34 PM,1.47,-8.23,-5.69,-0.07,-0.17,0.01
8:14:35 PM,1.39,-8.25,-5.33,-0.04,-0.07,0.01
8:14:35 PM,1.08,-8.34,-5.30,0.09,-0.02,0.01
8:14:35 PM,1.30,-8.27,-5.43,-0.03,-0.02,0.01
8:14:35 PM,1.47,-8.09,-5.43,0.02,-0.09,0.01
8:14:35 PM,1.11,-8.23,-5.78,-0.05,0.01,0.01
8:14:35 PM,1.37,-8.27,-5.77,-0.03,-0.03,0.01
8:14:35 PM,1.24,-8.09,-5.83,0.01,-0.05,0.01
8:14:35 PM,1.02,-8.31,-5.87,-0.03,-0.02,0.01
8:14:35 PM,1.31,-8.02,-5.62,0.07,0.01,0.01
8:14:36 PM,1.41,-7.81,-5.78,0.02,-0.03,0.01
8:14:36 PM,1.57,-8.16,-5.83,-0.03,0.01,0.01
8:14:36 PM,1.25,-8.07,-6.19,-0.02,-0.02,0.01
8:14:36 PM,1.38,-8.06,-5.89,-0.01,0.02,0.01
8:14:36 PM,1.09,-8.00,-5.93,-0.06,0.06,0.01
8:14:36 PM,1.43,-8.07,-5.81,-0.02,-0.03,0.01
8:14:36 PM,1.50,-8.06,-5.96,0.02,-0.01,0.01
8:14:36 PM,1.25,-7.96,-6.31,-0.02,-0.03,0.01
8:14:36 PM,1.35,-8.08,-5.83,-0.00,0.03,0.01
8:14:36 PM,1.40,-8.08,-5.94,0.04,-0.02,0.01
8:14:37 PM,1.68,-7.93,-5.74,0.04,-0.06,0.01
8:14:37 PM,1.66,-7.98,-5.90,0.00,-0.01,0.01
8:14:37 PM,1.28,-8.23,-5.78,-0.01,-0.01,0.01
8:14:37 PM,1.54,-8.06,-6.00,-0.00,-0.01,0.01
8:14:37 PM,1.49,-8.00,-6.10,0.01,-0.00,0.01
8:14:37 PM,1.43,-8.04,-5.96,0.03,-0.09,0.01
8:14:37 PM,1.34,-8.01,-5.84,0.03,-0.01,0.01
8:14:37 PM,1.68,-8.04,-5.86,0.07,-0.10,0.01
8:14:37 PM,1.19,-8.15,-5.90,0.01,0.04,0.01
8:14:38 PM,0.98,-8.17,-5.99,-0.02,0.06,0.01
8:14:38 PM,1.43,-7.97,-6.11,0.01,-0.00,0.01
8:14:38 PM,1.37,-8.06,-5.81,0.04,0.06,0.01
8:14:38 PM,1.25,-8.15,-5.92,-0.06,0.05,0.01
8:14:38 PM,1.24,-8.16,-6.34,-0.04,-0.04,0.01
8:14:38 PM,1.34,-8.15,-5.89,0.01,0.00,0.01
8:14:38 PM,1.85,-8.00,-5.75,-0.04,-0.07,0.01
8:14:38 PM,1.28,-8.05,-5.96,0.05,0.02,0.01
8:14:38 PM,1.44,-8.13,-5.83,0.04,-0.03,0.01
8:14:38 PM,1.31,-7.97,-6.10,-0.02,-0.05,0.01
8:14:39 PM,1.25,-7.97,-6.12,-0.01,0.07,0.01
8:14:39 PM,1.74,-7.93,-6.20,-0.02,-0.05,0.01
8:14:39 PM,1.53,-7.91,-6.20,-0.00,-0.04,0.01
8:14:39 PM,1.21,-8.11,-5.71,0.07,0.04,0.01
8:14:39 PM,1.50,-8.08,-5.61,0.06,-0.05,0.01
8:14:39 PM,1.23,-8.02,-5.99,-0.03,-0.05,0.01
8:14:39 PM,1.52,-8.22,-5.74,0.01,0.04,0.01
8:14:39 PM,1.19,-8.04,-6.02,0.01,0.05,0.01
8:14:39 PM,1.63,-7.99,-6.02,-0.02,-0.02,0.01
8:14:40 PM,1.77,-8.08,-5.74,0.01,-0.06,0.01
8:14:40 PM,1.63,-8.03,-5.77,0.02,0.01,0.01
8:14:40 PM,1.15,-8.09,-5.91,0.02,0.01,0.01
8:14:40 PM,1.47,-8.00,-5.94,0.03,-0.03,0.01
8:14:40 PM,1.35,-8.10,-5.91,-0.02,0.02,0.01
8:14:40 PM,1.17,-8.11,-5.80,0.05,0.03,0.01
8:14:40 PM,1.27,-8.14,-5.71,0.01,0.00,0.01
8:14:40 PM,1.76,-8.26,-5.94,-0.06,-0.02,0.01
8:14:40 PM,1.68,-8.13,-6.05,-0.01,0.02,0.01
8:14:40 PM,1.22,-7.93,-6.28,-0.04,-0.00,0.01
8:14:41 PM,1.57,-8.03,-5.94,0.00,-0.03,0.01
8:14:41 PM,1.56,-8.07,-5.71,0.07,-0.07,0.01
8:14:41 PM,1.46,-7.79,-6.41,-0.02,0.02,0.01
8:14:41 PM,1.52,-8.00,-5.90,0.02,-0.06,0.01
8:14:41 PM,1.26,-7.96,-5.89,0.07,-0.06,0.01
8:14:41 PM,1.47,-8.07,-5.70,0.01,0.01,0.01
8:14:41 PM,1.40,-7.92,-5.87,0.03,-0.04,0.01
8:14:41 PM,1.36,-8.00,-5.82,0.03,-0.13,0.01
8:14:41 PM,1.43,-8.19,-5.78,-0.01,0.03,0.01
8:14:42 PM,1.43,-8.13,-6.08,0.01,-0.04,0.01
8:14:42 PM,1.41,-8.09,-5.89,0.01,-0.03,0.01
8:14:42 PM,1.30,-7.89,-5.76,0.05,-0.02,0.01
8:14:42 PM,1.36,-7.94,-5.97,0.02,-0.08,0.01
8:14:42 PM,1.13,-8.02,-6.02,-0.01,0.01,0.01
8:14:42 PM,1.20,-8.30,-5.74,0.04,0.00,0.01
8:14:42 PM,1.08,-8.13,-5.98,0.03,-0.04,0.01
8:14:42 PM,0.98,-8.27,-5.90,-0.00,0.00,0.01
8:14:42 PM,1.22,-8.13,-5.99,-0.02,0.10,0.01
8:14:42 PM,1.08,-8.27,-5.83,0.05,-0.03,0.01
8:14:43 PM,1.19,-8.20,-5.69,0.03,0.07,0.01
8:14:43 PM,1.58,-7.95,-6.02,-0.08,0.01,0.01
8:14:43 PM,1.12,-7.96,-6.32,-0.11,-0.00,0.01
8:14:43 PM,0.80,-7.81,-5.96,-0.02,-0.06,0.01
8:14:43 PM,1.39,-8.02,-5.79,0.04,-0.05,0.01
8:14:43 PM,1.16,-8.07,-5.75,0.02,-0.10,0.01
8:14:43 PM,1.31,-7.95,-6.17,0.01,-0.10,0.01
8:14:43 PM,1.62,-7.96,-6.20,-0.00,-0.08,0.01
8:14:43 PM,1.08,-8.05,-6.10,-0.01,-0.05,0.01
8:14:44 PM,1.46,-8.01,-6.11,-0.04,0.01,0.01
8:14:44 PM,1.52,-7.91,-6.04,0.10,-0.10,0.01
8:14:44 PM,1.03,-7.98,-5.76,0.02,0.02,0.01
8:14:44 PM,1.44,-8.12,-6.01,0.04,-0.07,0.01
8:14:44 PM,0.96,-8.21,-5.85,0.00,0.10,0.01
8:14:44 PM,1.08,-7.93,-6.03,0.06,-0.15,0.01
8:14:44 PM,1.03,-8.11,-6.19,-0.04,0.09,0.01
8:14:44 PM,1.51,-7.97,-6.18,-0.03,-0.11,0.01
8:14:44 PM,1.21,-8.20,-5.79,-0.04,-0.01,0.01
8:14:44 PM,0.69,-7.89,-6.32,-0.04,0.08,0.01
8:14:45 PM,1.39,-8.12,-5.87,-0.02,-0.10,0.01
8:14:45 PM,1.09,-7.96,-5.86,0.07,-0.06,0.01
8:14:45 PM,1.33,-7.99,-5.92,0.03,-0.01,0.01
8:14:45 PM,0.89,-8.22,-5.93,0.18,-0.04,0.01
8:14:45 PM,0.49,-8.18,-6.12,-0.01,0.04,0.01
8:14:45 PM,0.74,-8.19,-5.78,-0.01,0.06,0.01
8:14:45 PM,1.18,-8.16,-5.55,0.06,-0.01,0.01
8:14:45 PM,1.15,-8.09,-5.88,-0.03,0.01,0.01
8:14:45 PM,1.04,-8.22,-6.01,0.05,-0.02,0.01
8:14:46 PM,1.18,-8.20,-5.80,0.02,0.04,0.01
8:14:46 PM,1.16,-8.02,-6.00,0.01,-0.07,0.01
8:14:46 PM,1.51,-8.11,-6.02,-0.02,-0.08,0.01
8:14:46 PM,1.18,-7.98,-6.04,-0.06,-0.02,0.01
8:14:46 PM,0.84,-8.06,-6.34,0.01,0.05,0.01
8:14:46 PM,1.35,-8.23,-5.92,-0.02,-0.01,0.01
8:14:46 PM,1.47,-8.09,-5.88,0.00,-0.04,0.01
8:14:46 PM,1.13,-8.17,-6.11,0.06,-0.02,0.01
8:14:46 PM,1.38,-8.05,-5.94,0.02,0.00,0.01
8:14:47 PM,1.24,-8.02,-5.77,-0.01,-0.01,0.01
8:14:47 PM,0.78,-8.01,-6.18,0.00,0.04,0.01
8:14:47 PM,1.02,-8.13,-6.06,-0.01,-0.03,0.01
8:14:47 PM,1.41,-8.12,-5.96,0.01,0.03,0.01
8:14:47 PM,1.18,-7.92,-5.71,0.05,-0.06,0.01
8:14:47 PM,1.12,-7.99,-5.78,0.07,0.02,0.01
8:14:47 PM,1.54,-8.14,-5.66,0.04,-0.04,0.01
8:14:47 PM,1.21,-8.00,-6.20,-0.04,0.04,0.01
8:14:47 PM,0.96,-8.30,-5.79,0.04,-0.10,0.01
8:14:47 PM,1.10,-7.99,-6.13,0.03,-0.10,0.01
8:14:48 PM,1.22,-8.17,-5.76,0.01,-0.03,0.01
8:14:48 PM,1.04,-8.06,-5.90,0.09,-0.13,0.01
8:14:48 PM,1.09,-8.00,-5.99,0.05,-0.03,0.01
8:14:48 PM,1.04,-7.90,-6.26,0.01,-0.01,0.01
8:14:48 PM,1.22,-7.82,-6.22,-0.08,-0.03,0.01
8:14:48 PM,1.35,-8.00,-6.46,0.04,-0.07,0.01
8:14:48 PM,0.98,-7.94,-6.27,-0.01,0.04,0.01
8:14:48 PM,1.14,-8.03,-6.12,-0.02,-0.11,0.01
8:14:48 PM,1.62,-8.04,-5.98,-0.03,-0.00,0.01
8:14:49 PM,1.13,-8.08,-6.16,-0.05,0.04,0.01
8:14:49 PM,1.09,-7.89,-6.37,-0.05,0.00,0.01
8:14:49 PM,1.00,-8.19,-5.96,-0.01,-0.06,0.01
8:14:49 PM,1.16,-8.16,-6.04,-0.02,0.00,0.01
8:14:49 PM,1.01,-8.09,-5.99,0.02,0.05,0.01
8:14:49 PM,1.22,-7.95,-5.90,0.03,0.01,0.01
8:14:49 PM,1.30,-8.00,-5.80,0.01,-0.01,0.01
8:14:49 PM,1.00,-7.91,-6.01,0.02,-0.01,0.01
8:14:49 PM,0.89,-8.12,-6.10,-0.04,0.00,0.01
8:14:49 PM,1.38,-7.96,-6.19,0.05,-0.12,0.01
8:14:50 PM,1.29,-7.83,-6.04,0.06,-0.07,0.01
8:14:50 PM,1.18,-7.79,-6.16,0.00,-0.04,0.01
8:14:50 PM,1.49,-8.18,-6.01,-0.02,-0.07,0.01
8:14:50 PM,1.07,-7.96,-6.63,0.04,-0.08,0.01
8:14:50 PM,1.12,-8.19,-5.88,0.05,-0.01,0.01
8:14:50 PM,1.33,-8.14,-5.78,0.03,-0.01,0.01
8:14:50 PM,1.02,-7.98,-6.17,-0.04,0.04,0.01
8:14:50 PM,1.23,-7.95,-6.35,-0.01,0.04,0.01
8:14:50 PM,1.50,-7.83,-6.35,0.01,-0.06,0.01
8:14:51 PM,1.43,-7.88,-6.07,0.00,0.03,0.01
8:14:51 PM,1.16,-7.85,-6.06,0.01,-0.03,0.01
8:14:51 PM,1.20,-7.91,-6.01,0.02,-0.08,0.01
8:14:51 PM,1.21,-7.99,-5.75,-0.01,-0.05,0.01
8:14:51 PM,1.26,-7.92,-6.34,-0.00,-0.05,0.01
8:14:51 PM,1.42,-8.01,-6.09,-0.02,-0.06,0.01
8:14:51 PM,1.41,-7.89,-6.02,0.00,0.00,0.01
8:14:51 PM,1.47,-7.88,-5.94,-0.03,-0.02,0.01
8:14:51 PM,1.15,-8.04,-6.19,-0.00,-0.05,0.01
8:14:51 PM,1.26,-8.09,-6.24,-0.13,-0.05,0.01
8:14:52 PM,1.75,-8.09,-5.62,0.07,-0.08,0.01
8:14:52 PM,0.95,-7.90,-5.91,0.05,-0.02,0.01
8:14:52 PM,1.38,-7.92,-6.43,-0.01,0.02,0.01
8:14:52 PM,1.37,-7.96,-6.56,-0.03,-0.02,0.01
8:14:52 PM,1.35,-8.00,-6.13,-0.01,0.04,0.01
8:14:52 PM,1.18,-7.89,-6.25,0.04,0.02,0.01
8:14:52 PM,1.28,-7.96,-6.37,-0.03,-0.05,0.01
8:14:52 PM,1.48,-7.92,-6.31,-0.03,0.05,0.01
8:14:52 PM,1.36,-7.74,-6.38,-0.01,-0.02,0.01
8:14:53 PM,1.31,-7.87,-6.24,0.04,-0.04,0.01
8:14:53 PM,1.42,-7.95,-6.00,0.02,-0.01,0.01
8:14:53 PM,1.51,-7.85,-6.09,0.02,0.03,0.01
8:14:53 PM,1.17,-7.97,-6.14,0.05,-0.04,0.01
8:14:53 PM,1.17,-7.99,-6.07,0.03,-0.00,0.01
8:14:53 PM,1.19,-7.98,-6.28,-0.02,-0.01,0.01
8:14:53 PM,1.52,-7.93,-6.38,-0.02,-0.03,0.01
8:14:53 PM,1.19,-7.98,-6.11,-0.01,0.02,0.01
8:14:53 PM,1.22,-8.00,-6.00,0.03,0.03,0.01
8:14:53 PM,1.35,-7.84,-6.17,0.01,-0.02,0.01
8:14:54 PM,1.39,-7.84,-6.34,0.02,-0.00,0.01
8:14:54 PM,1.25,-7.81,-6.35,-0.03,-0.02,0.01
8:14:54 PM,1.61,-7.81,-6.28,-0.00,-0.00,0.01
8:14:54 PM,1.23,-8.07,-6.15,0.01,-0.07,0.01
8:14:54 PM,1.43,-7.82,-6.30,0.07,-0.04,0.01
8:14:54 PM,1.60,-7.69,-6.62,0.05,-0.03,0.01
8:14:54 PM,1.05,-7.81,-6.58,-0.05,0.07,0.01
8:14:54 PM,1.02,-7.73,-6.39,0.11,0.01,0.01
8:14:54 PM,1.48,-7.59,-6.02,-0.00,0.05,0.01
8:14:55 PM,1.36,-7.78,-6.10,0.05,-0.09,0.01
8:14:55 PM,1.40,-7.93,-6.28,0.03,-0.07,0.01
8:14:55 PM,1.33,-7.94,-6.04,0.09,0.00,0.01
8:14:55 PM,1.47,-7.92,-5.82,0.04,-0.07,0.01
8:14:55 PM,1.13,-8.02,-6.04,-0.01,-0.07,0.01
8:14:55 PM,1.13,-7.92,-6.30,-0.01,0.02,0.01
8:14:55 PM,1.44,-8.02,-6.17,-0.00,0.01,0.01
8:14:55 PM,1.49,-8.00,-5.66,0.04,0.00,0.01
8:14:55 PM,1.52,-7.90,-5.88,0.04,-0.02,0.01
8:14:55 PM,1.21,-8.05,-6.29,-0.02,-0.01,0.01
8:14:56 PM,1.60,-7.96,-6.18,0.04,-0.15,0.01
8:14:56 PM,1.23,-7.99,-6.27,-0.01,0.08,0.01
8:14:56 PM,1.35,-8.03,-6.13,0.01,-0.03,0.01
8:14:56 PM,1.51,-7.93,-6.15,0.07,0.00,0.01
8:14:56 PM,1.39,-7.90,-6.16,0.02,0.00,0.01
8:14:56 PM,1.33,-7.86,-6.12,-0.01,0.05,0.01
8:14:56 PM,1.15,-7.91,-6.38,-0.04,-0.00,0.01
8:14:56 PM,1.32,-8.10,-6.32,0.00,0.01,0.01
8:14:56 PM,1.04,-7.99,-6.82,-0.05,-0.49,0.01
8:14:57 PM,1.79,-7.82,-5.98,0.01,0.15,0.01
8:14:57 PM,1.51,-7.79,-5.93,-0.03,0.02,0.01
8:14:57 PM,1.09,-7.83,-5.94,0.09,-0.22,0.01
8:14:57 PM,-0.21,-7.80,-6.20,0.09,-0.08,0.01
8:14:57 PM,1.97,-7.88,-6.46,-0.07,0.07,0.01
8:14:57 PM,1.57,-7.91,-6.35,0.00,-0.04,0.01
8:14:57 PM,1.30,-7.88,-5.98,0.01,0.02,0.01
8:14:57 PM,1.09,-8.03,-5.96,0.01,0.03,0.01
8:14:57 PM,1.20,-7.76,-6.22,0.04,0.02,0.01
8:14:58 PM,1.27,-7.72,-6.52,-0.06,-0.04,0.01
8:14:58 PM,1.13,-8.07,-6.29,-0.04,0.05,0.01
8:14:58 PM,1.26,-8.17,-5.73,0.03,0.05,0.01
8:14:58 PM,1.34,-8.02,-5.89,0.01,-0.08,0.01
8:14:58 PM,1.14,-8.23,-6.00,0.02,0.02,0.01
8:14:58 PM,1.44,-7.94,-6.04,0.01,-0.08,0.01
8:14:58 PM,1.42,-7.87,-6.33,0.04,-0.06,0.01
8:14:58 PM,1.37,-8.06,-6.03,0.01,-0.01,0.01
8:14:58 PM,1.59,-7.69,-6.06,0.03,-0.02,0.01
8:14:58 PM,1.32,-7.80,-6.07,0.03,-0.10,0.01
8:14:59 PM,1.65,-7.85,-6.30,-0.01,0.02,0.01
8:14:59 PM,1.34,-7.98,-6.32,-0.01,-0.09,0.01
8:14:59 PM,1.54,-7.80,-6.36,-0.02,-0.12,0.01
8:14:59 PM,1.30,-7.90,-6.15,0.02,0.03,0.01
8:14:59 PM,1.47,-7.98,-6.08,0.01,-0.06,0.01
8:14:59 PM,1.19,-7.84,-6.05,0.05,-0.05,0.01
8:14:59 PM,1.36,-7.82,-6.32,0.05,-0.02,0.01
8:14:59 PM,1.26,-7.86,-6.17,0.02,-0.02,0.01
8:14:59 PM,1.45,-7.89,-6.25,-0.04,-0.00,0.01
8:15:00 PM,1.53,-7.96,-6.18,-0.01,-0.01,0.01
8:15:00 PM,1.23,-7.86,-6.47,0.02,-0.07,0.01
8:15:00 PM,1.62,-7.94,-5.94,0.02,0.06,0.01
8:15:00 PM,1.23,-7.57,-6.39,0.02,-0.11,0.01
8:15:00 PM,1.32,-7.92,-6.40,-0.02,-0.00,0.01
8:15:00 PM,1.29,-7.96,-6.64,-0.05,-0.04,0.01
8:15:00 PM,1.42,-7.86,-6.59,-0.05,0.04,0.01
8:15:00 PM,1.36,-7.92,-6.35,0.01,0.09,0.01
8:15:00 PM,1.11,-7.69,-6.24,0.01,-0.01,0.01
8:15:00 PM,1.75,-7.79,-6.27,-0.03,0.01,0.01
8:15:01 PM,1.53,-7.69,-6.44,-0.01,-0.02,0.01
8:15:01 PM,0.98,-7.81,-6.25,-0.04,0.00,0.01
8:15:01 PM,1.20,-7.88,-6.22,0.06,0.02,0.01
8:15:01 PM,1.52,-7.92,-6.13,0.08,-0.08,0.01
8:15:01 PM,1.17,-7.76,-6.47,0.02,-0.03,0.01
8:15:01 PM,1.27,-7.92,-6.20,0.05,-0.03,0.01
8:15:01 PM,1.48,-7.91,-6.44,-0.01,0.05,0.01
8:15:01 PM,1.50,-7.81,-6.41,-0.01,-0.05,0.01
8:15:01 PM,1.60,-7.92,-6.20,0.01,0.00,0.01
8:15:02 PM,1.72,-7.83,-6.06,-0.00,-0.01,0.01
8:15:02 PM,1.44,-7.72,-6.50,-0.02,-0.08,0.01
8:15:02 PM,1.25,-7.80,-6.47,0.01,-0.02,0.01
8:15:02 PM,1.82,-7.84,-6.04,0.03,0.18,0.01
8:15:02 PM,1.19,-7.72,-6.48,-0.01,-0.08,0.01
8:15:02 PM,1.46,-7.94,-6.46,-0.02,0.16,0.01
8:15:02 PM,1.55,-7.78,-6.24,0.02,0.10,0.01
8:15:02 PM,1.63,-7.59,-6.27,-0.01,-0.00,0.01
8:15:02 PM,1.46,-7.75,-6.53,0.00,-0.02,0.01
8:15:02 PM,1.55,-7.82,-6.15,0.04,0.05,0.01
8:15:03 PM,1.46,-7.80,-6.28,0.01,-0.05,0.01
8:15:03 PM,1.65,-8.13,-6.32,-0.23,-0.03,0.01
8:15:03 PM,1.48,-7.85,-6.35,-0.03,-0.05,0.01
8:15:03 PM,1.35,-7.87,-6.49,-0.04,-0.00,0.01
8:15:03 PM,1.76,-7.79,-6.72,0.00,0.10,0.01
8:15:03 PM,1.64,-7.78,-6.33,0.04,0.00,0.01
8:15:03 PM,1.92,-7.66,-6.13,0.03,-0.01,0.01
8:15:03 PM,1.63,-7.72,-6.39,0.06,-0.03,0.01
8:15:03 PM,1.58,-7.66,-6.77,0.01,0.06,0.01
8:15:04 PM,1.71,-7.87,-6.95,-0.04,-0.50,0.01
8:15:04 PM,1.76,-7.76,-6.44,-0.06,0.09,0.01
8:15:04 PM,1.95,-7.40,-6.71,-0.03,-0.01,0.01
8:15:04 PM,1.48,-7.53,-6.91,-0.01,0.01,0.01
8:15:04 PM,1.72,-7.60,-6.60,0.05,0.02,0.01
8:15:04 PM,1.91,-7.80,-6.54,0.02,-0.07,0.01
8:15:04 PM,1.83,-7.74,-6.31,-0.01,-0.08,0.01
8:15:04 PM,1.84,-7.70,-6.14,0.03,-0.04,0.01
8:15:04 PM,1.57,-7.58,-6.53,0.06,0.01,0.01
8:15:04 PM,1.73,-7.58,-6.89,-0.00,-0.03,0.01
8:15:05 PM,1.31,-7.73,-6.77,0.00,0.06,0.01
8:15:05 PM,1.67,-7.68,-6.13,0.06,-0.07,0.01
8:15:05 PM,1.55,-7.58,-6.32,0.09,-0.00,0.01
8:15:05 PM,1.60,-7.65,-6.37,0.05,-0.04,0.01
8:15:05 PM,1.46,-7.74,-6.38,0.02,-0.07,0.01
8:15:05 PM,1.60,-7.55,-6.55,0.03,-0.01,0.01
8:15:05 PM,1.60,-7.55,-6.37,0.01,-0.08,0.01
8:15:05 PM,1.33,-7.77,-6.41,0.00,0.04,0.01
8:15:05 PM,1.93,-7.60,-6.45,-0.01,0.02,0.01
8:15:06 PM,1.42,-7.71,-6.61,-0.01,-0.06,0.01
8:15:06 PM,1.70,-7.71,-6.40,0.04,-0.11,0.01
