Timestamp,Accel X,Accel Y,Accel Z,Gyro X,Gyro Y,Gyro Z
7:44:30 PM,-1.13,9.27,2.95,0.03,-0.02,0.01
7:44:30 PM,-0.87,9.16,3.13,-0.04,-0.00,0.01
7:44:31 PM,-0.90,9.14,2.90,-0.02,-0.05,0.01
7:44:31 PM,-0.52,9.10,2.97,0.00,-0.11,0.01
7:44:31 PM,-0.68,9.21,2.84,-0.02,0.06,0.01
7:44:31 PM,-0.70,9.07,3.07,-0.06,-0.06,0.01
7:44:31 PM,-0.49,8.99,3.00,-0.03,-0.11,0.01
7:44:31 PM,-0.85,9.16,2.97,0.06,-0.00,0.01
7:44:31 PM,-1.00,9.01,3.04,-0.03,-0.02,0.01
7:44:31 PM,-0.38,9.03,3.48,-0.06,0.00,0.01
7:44:31 PM,-0.81,9.02,3.48,0.01,0.02,0.01
7:44:31 PM,-0.71,9.10,3.45,0.05,0.07,0.01
7:44:32 PM,-1.03,9.01,3.39,0.01,-0.05,0.01
7:44:32 PM,-0.86,9.02,3.41,-0.05,-0.18,0.01
7:44:32 PM,-0.63,9.09,3.07,0.00,0.08,0.01
7:44:32 PM,-1.28,9.00,3.52,0.02,0.09,0.01
7:44:32 PM,-1.03,9.00,3.34,-0.01,-0.08,0.01
7:44:32 PM,-0.83,8.93,3.29,-0.06,0.03,0.01
7:44:32 PM,-0.50,8.90,3.06,-0.03,0.03,0.01
7:44:32 PM,-1.13,8.79,3.34,0.05,-0.02,0.01
7:44:32 PM,-0.82,8.88,3.51,0.07,-0.11,0.01
7:44:33 PM,-0.95,9.10,3.43,0.06,0.04,0.01
7:44:33 PM,-0.86,8.98,3.32,-0.00,0.02,0.01
7:44:33 PM,-1.28,9.00,3.08,-0.07,-0.05,0.01
7:44:33 PM,-0.41,8.81,3.60,0.02,-0.12,0.01
7:44:33 PM,-0.57,8.80,3.76,0.02,-0.03,0.01
7:44:33 PM,-0.75,8.88,3.58,-0.00,-0.05,0.01
7:44:33 PM,-0.81,8.82,3.24,-0.10,0.07,0.01
7:44:33 PM,-1.05,8.71,3.73,0.06,0.03,0.01
7:44:33 PM,-0.92,9.02,3.42,-0.02,-0.07,0.01
7:44:34 PM,-0.91,9.01,3.28,-0.01,-0.06,0.01
7:44:34 PM,-0.58,8.83,3.34,-0.05,-0.09,0.01
7:44:34 PM,-0.71,8.71,3.69,-0.03,-0.01,0.01
7:44:34 PM,-0.87,8.87,3.48,0.02,-0.02,0.01
7:44:34 PM,-1.13,9.05,3.58,0.06,0.02,0.01
7:44:34 PM,-1.03,9.09,3.69,0.08,-0.24,0.01
7:44:34 PM,0.89,9.32,2.89,-0.00,-0.37,0.01
7:44:34 PM,-0.20,8.98,3.66,0.11,-0.24,0.01
7:44:34 PM,-0.40,9.04,2.48,-0.16,-0.31,0.01
7:44:34 PM,-0.46,8.96,3.19,0.14,-0.35,0.01
7:44:35 PM,-0.33,8.93,3.17,-0.10,-0.27,0.01
7:44:35 PM,-0.28,9.16,3.14,-0.02,-0.06,0.01
7:44:35 PM,-0.49,9.17,3.35,0.01,-0.00,0.01
7:44:35 PM,-0.58,9.00,3.19,-0.06,-0.04,0.01
7:44:35 PM,-0.37,8.99,3.16,-0.04,-0.03,0.01
7:44:35 PM,-0.32,8.94,3.46,-0.03,-0.07,0.01
7:44:35 PM,-0.36,9.02,3.61,-0.01,0.00,0.01
7:44:35 PM,-0.66,9.05,3.30,-0.03,0.01,0.01
7:44:35 PM,-0.57,8.82,3.29,-0.06,-0.02,0.01
7:44:36 PM,0.30,8.77,3.93,-0.02,-0.16,0.01
7:44:36 PM,-0.28,8.90,3.51,-0.08,0.04,0.01
7:44:36 PM,-0.25,8.75,3.81,-0.02,0.00,0.01
7:44:36 PM,-0.62,8.80,3.86,0.01,0.07,0.01
7:44:36 PM,-0.84,8.87,3.58,-0.01,0.02,0.01
7:44:36 PM,-0.46,8.75,3.81,0.01,0.02,0.01
7:44:36 PM,-0.61,8.78,3.65,0.02,-0.00,0.01
7:44:36 PM,-0.94,8.81,3.56,-0.05,0.09,0.01
7:44:36 PM,-0.31,8.60,3.85,0.09,-0.06,0.01
7:44:36 PM,-0.55,8.86,3.38,0.02,-0.03,0.01
7:44:37 PM,-0.96,8.81,3.93,-0.01,-0.08,0.01
7:44:37 PM,-0.57,8.75,3.76,0.02,-0.02,0.01
7:44:37 PM,-0.60,8.84,3.85,0.05,-0.04,0.01
7:44:37 PM,-0.32,8.91,4.00,0.05,-0.04,0.01
7:44:37 PM,-0.96,9.03,3.77,0.04,0.10,0.01
7:44:37 PM,-0.48,8.89,3.82,-0.01,0.04,0.01
7:44:37 PM,-0.41,8.82,3.58,-0.07,-0.05,0.01
7:44:37 PM,-0.47,8.61,4.10,0.04,0.00,0.01
7:44:37 PM,-0.73,8.74,3.92,0.05,0.05,0.01
7:44:38 PM,-0.57,8.64,3.83,-0.03,-0.09,0.01
7:44:38 PM,-0.61,8.78,3.41,-0.02,-0.02,0.01
7:44:38 PM,-0.49,8.80,3.89,0.03,-0.12,0.01
7:44:38 PM,-0.59,8.74,3.99,-0.05,-0.17,0.01
7:44:38 PM,-0.45,8.72,3.85,0.00,-0.01,0.01
7:44:38 PM,-0.51,8.64,3.53,-0.07,-0.06,0.01
7:44:38 PM,-1.17,8.66,4.28,0.02,0.04,0.01
7:44:38 PM,-0.62,8.74,3.79,0.06,-0.03,0.01
7:44:38 PM,-0.42,8.84,3.62,0.02,0.01,0.01
7:44:38 PM,-0.40,8.76,3.69,-0.11,0.02,0.01
7:44:39 PM,-0.61,8.56,4.05,-0.01,0.03,0.01
7:44:39 PM,-0.65,8.70,4.13,-0.00,-0.13,0.01
7:44:39 PM,-0.53,8.75,3.93,0.04,0.02,0.01
7:44:39 PM,-0.87,8.80,3.69,-0.02,-0.03,0.01
7:44:39 PM,-0.46,8.71,3.97,-0.01,-0.00,0.01
7:44:39 PM,-0.58,8.72,3.98,0.03,0.00,0.01
7:44:39 PM,-0.54,8.72,3.99,0.02,-0.08,0.01
7:44:39 PM,-0.11,8.57,4.19,-0.02,-0.11,0.01
7:44:39 PM,-0.29,8.57,3.97,-0.00,-0.01,0.01
7:44:40 PM,-0.77,8.75,3.79,0.02,0.07,0.01
7:44:40 PM,-0.44,8.57,4.29,0.00,-0.03,0.01
7:44:40 PM,-0.65,8.53,3.96,-0.00,-0.10,0.01
7:44:40 PM,-0.37,8.61,4.16,-0.03,0.06,0.01
7:44:40 PM,-0.69,8.64,3.96,0.03,0.08,0.01
7:44:40 PM,-0.54,8.61,4.30,0.07,-0.10,0.01
7:44:40 PM,-1.11,8.65,4.22,-0.26,0.05,0.01
7:44:40 PM,-0.78,8.67,3.97,0.00,0.04,0.01
7:44:40 PM,-0.59,8.66,3.86,0.06,0.02,0.01
7:44:40 PM,-0.57,8.74,3.93,0.02,-0.05,0.01
7:44:41 PM,-0.48,8.53,4.16,-0.01,-0.12,0.01
7:44:41 PM,-0.34,8.33,4.44,0.03,-0.13,0.01
7:44:41 PM,-0.28,8.07,4.52,-0.00,-0.09,0.01
7:44:41 PM,-0.66,8.60,3.87,0.06,0.09,0.01
7:44:41 PM,-0.70,8.77,4.07,0.09,-0.02,0.01
7:44:41 PM,-0.74,8.77,3.92,-0.00,-0.04,0.01
7:44:41 PM,-0.52,8.61,3.79,-0.06,-0.06,0.01
7:44:41 PM,-0.77,8.55,3.76,-0.03,-0.09,0.01
7:44:41 PM,-0.57,8.45,4.21,-0.04,-0.06,0.01
7:44:42 PM,-0.25,8.50,4.19,0.04,-0.03,0.01
7:44:42 PM,-0.41,8.63,3.86,0.02,0.04,0.01
7:44:42 PM,-0.64,8.69,3.97,0.02,0.01,0.01
7:44:42 PM,-0.62,8.67,3.90,-0.01,-0.01,0.01
7:44:42 PM,-0.52,8.67,3.87,0.00,-0.02,0.01
7:44:42 PM,-0.47,8.61,4.12,-0.02,-0.09,0.01
7:44:42 PM,-0.48,8.53,4.11,-0.03,-0.08,0.01
7:44:42 PM,-0.09,8.56,4.19,0.01,-0.06,0.01
7:44:42 PM,-0.47,8.57,4.19,0.02,0.02,0.01
7:44:42 PM,-0.56,8.66,3.92,0.03,0.02,0.01
7:44:43 PM,-0.53,8.69,4.15,0.04,0.12,0.01
7:44:43 PM,-0.75,8.73,4.18,0.04,0.06,0.01
7:44:43 PM,-0.41,8.71,3.98,0.00,0.01,0.01
7:44:43 PM,-0.46,8.65,3.88,-0.04,-0.07,0.01
7:44:43 PM,-0.64,8.55,4.07,-0.02,-0.02,0.01
7:44:43 PM,-0.26,8.55,4.16,-0.01,-0.03,0.01
7:44:43 PM,-0.36,8.55,3.95,-0.01,-0.04,0.01
7:44:43 PM,-0.05,8.85,3.46,-0.05,-0.04,0.01
7:44:43 PM,-0.66,8.55,4.23,0.05,-0.05,0.01
7:44:44 PM,-0.21,8.71,4.08,0.00,-0.12,0.01
7:44:44 PM,-0.74,8.51,4.15,-0.03,-0.02,0.01
7:44:44 PM,-0.52,8.56,3.98,-0.01,-0.00,0.01
7:44:44 PM,-0.57,8.55,4.41,0.01,-0.05,0.01
7:44:44 PM,-0.74,8.45,4.31,0.03,-0.03,0.01
7:44:44 PM,-0.10,8.49,4.13,-0.03,-0.06,0.01
7:44:44 PM,-0.51,8.46,4.04,0.01,-0.01,0.01
7:44:44 PM,-0.41,8.47,4.40,0.03,-0.00,0.01
7:44:44 PM,-0.58,8.67,4.16,0.07,0.05,0.01
7:44:45 PM,-0.87,8.68,3.97,0.01,0.11,0.01
7:44:45 PM,-0.64,8.58,4.02,0.01,-0.01,0.01
7:44:45 PM,-0.33,8.57,4.01,-0.02,-0.13,0.01
7:44:45 PM,-0.18,8.41,4.36,-0.02,-0.05,0.01
7:44:45 PM,-0.49,8.50,4.07,0.04,0.02,0.01
7:44:45 PM,-0.54,8.59,4.02,-0.03,-0.03,0.01
7:44:45 PM,-0.34,8.49,4.04,-0.01,-0.14,0.01
7:44:45 PM,-0.22,8.58,4.24,0.03,-0.07,0.01
7:44:45 PM,-0.81,8.68,4.11,0.03,0.04,0.01
7:44:45 PM,-0.34,8.59,4.23,-0.01,-0.01,0.01
7:44:46 PM,-0.39,8.47,4.12,-0.01,-0.01,0.01
7:44:46 PM,-0.43,8.41,4.36,0.04,-0.03,0.01
7:44:46 PM,-0.59,8.60,4.13,0.02,0.10,0.01
7:44:46 PM,-0.27,8.64,4.40,0.07,0.04,0.01
7:44:46 PM,-0.31,8.56,4.05,0.04,0.04,0.01
7:44:46 PM,-0.37,8.62,4.10,0.04,-0.01,0.01
7:44:46 PM,-0.61,8.73,4.12,0.03,-0.01,0.01
7:44:46 PM,-0.35,8.46,4.33,-0.04,-0.06,0.01
7:44:46 PM,-0.49,8.45,4.02,0.00,-0.01,0.01
7:44:47 PM,-0.26,8.43,4.24,-0.03,-0.03,0.01
7:44:47 PM,-0.23,8.44,4.11,-0.03,-0.06,0.01
7:44:47 PM,-0.36,8.61,4.07,0.05,-0.03,0.01
7:44:47 PM,-0.24,8.59,4.18,0.04,-0.07,0.01
7:44:47 PM,-0.35,8.60,4.04,-0.02,-0.09,0.01
7:44:47 PM,-0.22,8.51,4.13,0.00,-0.01,0.01
7:44:47 PM,-0.56,8.47,4.09,-0.01,-0.05,0.01
7:44:47 PM,-0.27,8.45,4.22,-0.00,-0.02,0.01
7:44:47 PM,-0.20,8.51,4.21,0.02,-0.07,0.01
7:44:47 PM,-0.24,8.50,4.21,-0.01,0.05,0.01
7:44:48 PM,-0.44,8.43,4.35,-0.05,0.12,0.01
7:44:48 PM,0.08,8.33,4.25,0.01,0.02,0.01
7:44:48 PM,-0.61,8.55,4.06,0.01,0.06,0.01
7:44:48 PM,-0.21,8.47,4.37,-0.01,-0.12,0.01
7:44:48 PM,-0.21,8.32,4.32,0.00,-0.02,0.01
7:44:48 PM,-0.31,8.48,4.40,0.06,0.05,0.01
7:44:48 PM,-0.14,8.91,3.71,0.24,-0.05,0.01
7:44:48 PM,-0.40,8.63,4.08,0.02,-0.11,0.01
7:44:48 PM,-0.08,8.59,4.26,0.00,-0.06,0.01
7:44:49 PM,-0.44,8.57,4.06,0.05,0.02,0.01
7:44:49 PM,-0.44,8.60,4.05,-0.02,-0.06,0.01
7:44:49 PM,-0.29,8.60,4.12,-0.03,-0.01,0.01
7:44:49 PM,-0.36,8.58,3.92,-0.02,0.01,0.01
7:44:49 PM,-0.13,8.35,4.39,0.01,-0.05,0.01
7:44:49 PM,-0.42,8.47,4.13,-0.02,0.00,0.01
7:44:49 PM,-0.46,8.68,3.90,0.04,0.05,0.01
7:44:49 PM,-0.65,8.61,4.06,0.01,-0.18,0.01
7:44:49 PM,-0.43,8.61,4.25,0.00,-0.05,0.01
7:44:49 PM,-0.25,8.46,4.20,-0.07,-0.10,0.01
7:44:50 PM,-0.04,8.49,4.08,0.01,0.05,0.01
7:44:50 PM,-0.59,8.41,4.38,0.01,0.03,0.01
7:44:50 PM,-0.40,8.57,4.06,0.01,0.10,0.01
7:44:50 PM,-0.62,8.43,4.21,0.00,0.01,0.01
7:44:50 PM,-0.27,8.43,4.39,-0.02,-0.06,0.01
7:44:50 PM,-0.28,8.41,4.17,-0.01,0.00,0.01
7:44:50 PM,-0.44,8.26,4.35,-0.01,-0.05,0.01
7:44:50 PM,-0.32,8.42,3.96,-0.05,-0.07,0.01
7:44:50 PM,-0.27,8.47,4.25,0.04,0.00,0.01
7:44:51 PM,-0.18,8.40,4.46,0.02,0.01,0.01
7:44:51 PM,-0.46,8.50,4.10,0.04,0.03,0.01
7:44:51 PM,-0.33,8.49,4.23,0.01,-0.08,0.01
7:44:51 PM,-0.55,8.58,4.12,-0.01,-0.08,0.01
7:44:51 PM,-0.47,8.49,4.19,-0.00,-0.09,0.01
7:44:51 PM,-0.38,8.39,4.40,0.01,-0.05,0.01
7:44:51 PM,-0.36,8.57,4.14,0.02,0.04,0.01
7:44:51 PM,-0.71,8.62,4.20,0.04,0.05,0.01
7:44:51 PM,-0.41,8.58,4.25,0.02,-0.03,0.01
7:44:51 PM,-0.33,8.49,4.02,-0.01,-0.02,0.01
7:44:52 PM,-0.54,8.64,3.84,0.01,0.02,0.01
7:44:52 PM,-0.53,8.54,4.49,-0.00,-0.12,0.01
7:44:52 PM,-0.37,8.52,4.25,0.02,-0.02,0.01
7:44:52 PM,-0.28,8.52,4.24,0.02,0.10,0.01
7:44:52 PM,-0.57,8.62,4.18,0.02,-0.01,0.01
7:44:52 PM,-0.27,8.51,4.17,-0.00,-0.17,0.01
7:44:52 PM,-0.37,8.47,4.29,0.01,-0.07,0.01
7:44:52 PM,-0.52,8.50,4.16,0.00,-0.02,0.01
7:44:52 PM,-0.47,8.42,4.28,-0.02,-0.02,0.01
7:44:53 PM,-0.27,8.41,4.22,-0.02,-0.01,0.01
7:44:53 PM,-0.42,8.33,4.40,0.02,-0.02,0.01
7:44:53 PM,-0.26,8.42,4.40,0.03,-0.01,0.01
7:44:53 PM,-0.41,8.56,4.04,0.03,0.01,0.01
7:44:53 PM,-0.63,8.61,4.11,0.06,0.08,0.01
7:44:53 PM,-0.49,8.70,4.42,0.04,0.07,0.01
7:44:53 PM,-0.32,8.57,4.19,0.02,0.06,0.01
7:44:53 PM,-0.47,8.59,3.93,0.05,0.04,0.01
7:44:53 PM,-0.25,8.62,4.20,0.04,-0.04,0.01
7:44:53 PM,-0.47,8.57,4.19,-0.01,-0.01,0.01
7:44:54 PM,-0.23,8.53,4.30,-0.00,-0.01,0.01
7:44:54 PM,-0.22,8.52,4.03,0.02,-0.04,0.01
7:44:54 PM,-0.37,8.51,4.15,0.02,0.02,0.01
7:44:54 PM,-0.34,8.54,4.07,-0.03,-0.01,0.01
7:44:54 PM,-0.25,8.38,4.07,-0.02,-0.04,0.01
7:44:54 PM,-0.24,8.48,4.35,0.06,-0.03,0.01
7:44:54 PM,-0.67,8.49,4.23,0.00,0.05,0.01
7:44:54 PM,-0.42,8.43,4.32,0.02,0.06,0.01
7:44:54 PM,-0.42,8.45,4.26,0.04,0.04,0.01
7:44:55 PM,-0.47,8.51,4.10,0.01,0.01,0.01
7:44:55 PM,-0.41,8.62,4.09,0.05,0.00,0.01
7:44:55 PM,-0.59,8.55,4.22,-0.03,-0.09,0.01
7:44:55 PM,-0.10,8.46,4.43,-0.03,-0.10,0.01
7:44:55 PM,-0.42,8.34,4.36,-0.01,-0.10,0.01
7:44:55 PM,-0.11,8.38,4.54,0.06,-0.02,0.01
7:44:55 PM,-0.62,8.51,4.01,0.01,0.11,0.01
7:44:55 PM,-0.57,8.56,4.25,0.00,0.00,0.01
7:44:55 PM,-0.41,8.43,4.25,0.01,-0.01,0.01
7:44:55 PM,-0.36,8.47,4.26,0.02,-0.04,0.01
7:44:56 PM,-0.31,8.45,4.43,0.02,-0.09,0.01
7:44:56 PM,0.09,8.34,4.23,-0.01,-0.06,0.01
7:44:56 PM,-0.19,8.44,4.30,0.06,-0.00,0.01
7:44:56 PM,-0.55,8.65,4.25,0.01,0.11,0.01
7:44:56 PM,-0.45,8.44,4.08,-0.01,-0.07,0.01
7:44:56 PM,-0.15,8.48,4.09,0.03,-0.09,0.01
7:44:56 PM,-0.13,8.43,4.56,0.03,-0.06,0.01
7:44:56 PM,-0.23,8.42,4.55,0.02,-0.02,0.01
7:44:56 PM,-0.57,8.54,4.13,0.04,0.08,0.01
7:44:57 PM,-0.53,8.56,4.09,0.08,-0.06,0.01
7:44:57 PM,-0.12,8.66,4.38,0.06,0.00,0.01
7:44:57 PM,-0.51,8.60,4.12,0.02,-0.06,0.01
7:44:57 PM,-0.68,8.62,4.14,0.03,-0.07,0.01
7:44:57 PM,-0.78,8.66,4.16,-0.00,0.01,0.01
7:44:57 PM,-0.33,8.49,4.16,-0.01,-0.02,0.01
7:44:57 PM,-0.34,8.54,4.18,-0.02,-0.01,0.01
7:44:57 PM,-0.39,8.53,4.28,0.00,-0.04,0.01
7:44:57 PM,-0.06,8.48,4.25,-0.01,-0.10,0.01
7:44:58 PM,-0.29,8.51,4.31,0.00,0.01,0.01
7:44:58 PM,-0.33,8.49,4.35,-0.03,-0.04,0.01
7:44:58 PM,0.54,8.33,4.03,0.06,-0.36,0.01
7:44:58 PM,-0.95,8.59,4.70,0.03,0.12,0.01
7:44:58 PM,0.15,8.50,3.82,-0.13,0.13,0.01
7:44:58 PM,0.22,8.41,4.05,0.06,0.10,0.01
7:44:58 PM,-0.11,8.50,4.30,0.01,0.04,0.01
7:44:58 PM,0.10,8.43,4.19,0.00,0.16,0.01
7:44:58 PM,0.37,8.30,3.98,0.06,0.05,0.01
7:44:58 PM,-0.58,8.66,4.28,0.06,0.06,0.01
7:44:59 PM,0.13,8.33,4.86,-0.00,-0.02,0.01
7:44:59 PM,-0.20,8.68,3.94,-0.06,0.11,0.01
7:44:59 PM,0.34,8.40,4.22,-0.03,0.10,0.01
7:44:59 PM,-0.42,8.32,4.57,-0.01,-0.08,0.01
7:44:59 PM,-0.40,8.60,4.58,0.09,-0.02,0.01
7:44:59 PM,0.03,8.38,4.30,-0.02,-0.05,0.01
7:44:59 PM,0.09,8.19,4.34,0.01,-0.18,0.01
7:44:59 PM,0.06,8.52,4.08,0.03,0.06,0.01
7:44:59 PM,-0.24,8.68,4.39,0.06,0.02,0.01
7:45:00 PM,-0.35,8.62,4.19,-0.01,-0.02,0.01
7:45:00 PM,0.06,8.39,3.96,-0.04,-0.01,0.01
7:45:00 PM,0.17,8.16,4.24,-0.03,-0.18,0.01
7:45:00 PM,0.02,8.38,4.89,-0.03,0.14,0.01
7:45:00 PM,-0.51,8.39,4.11,-0.04,0.17,0.01
7:45:00 PM,-0.60,8.47,3.78,-0.04,-0.02,0.01
7:45:00 PM,-0.34,8.49,4.41,0.03,-0.09,0.01
7:45:00 PM,-0.04,8.35,4.78,-0.04,-0.07,0.01
7:45:00 PM,-0.68,8.23,4.29,0.00,-0.10,0.01
7:45:00 PM,-0.33,8.30,4.22,0.00,-0.01,0.01
7:45:01 PM,-0.02,8.42,5.00,-0.01,-0.07,0.01
7:45:01 PM,-1.19,8.32,4.27,0.00,0.12,0.01
7:45:01 PM,-0.33,8.44,4.47,0.04,0.01,0.01
7:45:01 PM,-0.59,8.44,4.39,0.03,0.03,0.01
7:45:01 PM,-0.94,8.65,4.11,0.04,0.02,0.01
7:45:01 PM,-0.66,8.60,3.78,0.01,-0.00,0.01
7:45:01 PM,-0.51,8.56,4.39,0.03,-0.08,0.01
7:45:01 PM,-0.16,8.31,4.55,-0.05,-0.04,0.01
7:45:01 PM,-0.73,8.32,4.45,0.01,0.04,0.01
7:45:02 PM,-0.67,8.23,4.61,0.02,-0.06,0.01
7:45:02 PM,-0.28,8.55,3.84,0.03,0.01,0.01
7:45:02 PM,-0.55,8.51,4.08,-0.00,0.01,0.01
7:45:02 PM,-0.56,8.32,4.36,-0.02,-0.13,0.01
7:45:02 PM,-0.60,8.26,4.53,-0.02,-0.12,0.01
7:45:02 PM,-0.52,8.39,4.27,0.01,-0.00,0.01
7:45:02 PM,-0.57,8.48,4.44,0.05,0.05,0.01
7:45:02 PM,-0.52,8.57,4.45,0.03,-0.03,0.01
7:45:02 PM,-0.57,8.56,4.17,0.01,-0.04,0.01
7:45:02 PM,-0.64,8.46,4.31,0.01,-0.03,0.01
7:45:03 PM,-0.24,8.46,4.27,0.01,-0.03,0.01
7:45:03 PM,-0.56,8.37,4.15,-0.02,-0.06,0.01
7:45:03 PM,0.01,8.21,4.53,0.00,-0.12,0.01
7:45:03 PM,-0.52,8.24,4.06,-0.11,-0.13,0.01
7:45:03 PM,-0.44,8.43,4.46,0.01,-0.04,0.01
7:45:03 PM,-0.48,8.47,4.49,0.08,-0.04,0.01
7:45:03 PM,-0.56,8.42,4.11,-0.01,0.05,0.01
7:45:03 PM,-0.37,8.40,4.24,-0.02,-0.08,0.01
7:45:03 PM,-0.46,8.35,4.43,-0.01,-0.09,0.01
7:45:04 PM,-0.25,8.45,4.31,-0.02,-0.06,0.01
7:45:04 PM,-0.73,8.49,4.18,-0.02,0.06,0.01
7:45:04 PM,-0.22,8.44,4.47,-0.04,-0.04,0.01
7:45:04 PM,-0.60,8.35,4.31,0.01,-0.05,0.01
7:45:04 PM,-0.14,8.32,4.23,0.03,0.03,0.01
7:45:04 PM,-0.30,8.39,4.44,0.04,-0.06,0.01
7:45:04 PM,-0.61,8.50,4.43,0.01,0.01,0.01
7:45:04 PM,-0.38,8.42,4.38,0.05,0.06,0.01
7:45:04 PM,-0.18,8.58,4.37,0.06,0.05,0.01
7:45:04 PM,-0.87,8.55,4.32,0.02,-0.01,0.01
7:45:05 PM,-0.71,8.49,4.41,-0.01,0.02,0.01
7:45:05 PM,-0.72,8.35,3.99,0.02,-0.03,0.01
7:45:05 PM,-0.35,8.52,4.32,0.00,-0.05,0.01
7:45:05 PM,-0.46,8.20,4.83,-0.02,-0.01,0.01
7:45:05 PM,-0.58,8.43,4.50,0.04,0.05,0.01
7:45:05 PM,-0.47,8.46,4.63,0.07,0.17,0.01
7:45:05 PM,-0.72,8.53,4.30,0.07,0.01,0.01
7:45:05 PM,-0.75,8.57,4.02,0.02,-0.08,0.01
7:45:05 PM,-0.48,8.51,4.30,-0.01,-0.04,0.01
7:45:06 PM,-0.46,8.38,4.39,-0.00,-0.03,0.01
7:45:06 PM,-0.37,8.38,4.16,-0.02,-0.08,0.01
7:45:06 PM,-0.62,8.35,4.61,0.01,0.01,0.01
7:45:06 PM,-0.71,8.53,4.35,0.03,0.03,0.01
7:45:06 PM,-0.86,8.52,4.27,0.04,0.07,0.01
7:45:06 PM,-0.75,8.49,4.11,-0.02,-0.10,0.01
7:45:06 PM,-0.29,8.32,4.46,-0.05,-0.03,0.01
7:45:06 PM,-0.77,8.28,4.58,0.04,0.02,0.01
7:45:06 PM,-0.57,8.54,4.46,0.02,0.05,0.01
7:45:06 PM,-0.89,8.42,4.20,-0.02,0.05,0.01
7:45:07 PM,-0.47,8.48,4.14,0.01,-0.11,0.01
7:45:07 PM,-0.73,8.53,4.24,0.00,0.01,0.01
7:45:07 PM,-0.67,8.33,4.41,-0.01,-0.09,0.01
7:45:07 PM,-0.88,8.47,4.25,0.05,0.03,0.01
7:45:07 PM,-1.22,8.46,4.21,-0.00,0.00,0.01
7:45:07 PM,-0.65,8.49,4.35,0.02,-0.07,0.01
7:45:07 PM,-0.67,8.42,4.26,0.01,-0.03,0.01
7:45:07 PM,-0.79,8.40,4.26,0.05,0.01,0.01
7:45:07 PM,-0.66,8.61,4.26,0.02,0.02,0.01
7:45:08 PM,-0.66,8.56,4.19,0.03,-0.05,0.01
7:45:08 PM,-0.66,8.53,4.25,0.01,-0.05,0.01
7:45:08 PM,-0.68,8.55,4.19,0.00,-0.06,0.01
7:45:08 PM,-0.44,8.63,4.13,-0.02,-0.01,0.01
7:45:08 PM,-0.83,8.52,4.30,0.03,0.09,0.01
7:45:08 PM,-0.73,8.61,4.12,0.02,0.02,0.01
7:45:08 PM,-0.79,8.55,4.40,0.02,0.01,0.01
7:45:08 PM,-0.71,8.53,4.26,0.01,-0.05,0.01
7:45:08 PM,-0.94,8.39,4.24,-0.02,-0.05,0.01
7:45:08 PM,-0.64,8.49,4.20,0.02,0.01,0.01
7:45:09 PM,-0.81,8.39,4.53,0.01,0.03,0.01
7:45:09 PM,-0.86,8.37,4.50,0.01,-0.03,0.01
7:45:09 PM,-0.68,8.42,4.36,-0.00,0.05,0.01
7:45:09 PM,-0.97,8.38,4.33,0.00,0.02,0.01
7:45:09 PM,-0.55,8.43,4.42,0.02,-0.02,0.01
7:45:09 PM,-0.55,8.45,4.26,-0.02,-0.07,0.01
7:45:09 PM,-0.68,8.25,4.55,-0.01,-0.09,0.01
7:45:09 PM,-0.80,8.40,4.24,0.01,-0.03,0.01
7:45:09 PM,-0.67,8.42,4.29,-0.00,-0.08,0.01
7:45:10 PM,-0.71,8.35,4.48,0.01,-0.01,0.01
7:45:10 PM,-0.71,8.39,4.40,-0.01,-0.02,0.01
7:45:10 PM,-0.47,8.37,4.25,0.02,-0.06,0.01
7:45:10 PM,-0.92,8.40,4.49,0.04,-0.00,0.01
7:45:10 PM,-0.80,8.33,4.54,0.00,0.02,0.01
7:45:10 PM,-0.95,8.42,4.28,0.02,-0.02,0.01
7:45:10 PM,-0.74,8.35,4.49,0.03,-0.05,0.01
7:45:10 PM,-0.83,8.45,4.36,-0.00,-0.04,0.01
7:45:10 PM,-0.92,8.38,4.27,-0.03,0.02,0.01
7:45:11 PM,-0.92,8.50,4.58,0.06,0.01,0.01
7:45:11 PM,-0.90,8.49,4.53,0.03,0.06,0.01
7:45:11 PM,-0.75,8.43,4.27,0.00,-0.05,0.01
7:45:11 PM,-0.80,8.37,4.31,0.01,0.01,0.01
7:45:11 PM,-0.87,8.41,4.55,0.04,0.01,0.01
7:45:11 PM,-0.88,8.48,4.50,0.03,0.08,0.01
7:45:11 PM,-0.70,8.23,4.55,-0.02,-0.10,0.01
7:45:11 PM,-0.85,8.33,4.33,-0.01,0.11,0.01
7:45:11 PM,-1.07,8.52,4.20,0.04,-0.01,0.01
7:45:11 PM,-0.81,8.43,4.24,-0.03,-0.07,0.01
7:45:12 PM,-0.57,8.36,4.45,-0.04,-0.03,0.01
7:45:12 PM,-0.76,8.40,4.31,0.03,0.05,0.01
7:45:12 PM,-0.97,8.30,4.49,-0.00,-0.02,0.01
7:45:12 PM,-0.63,8.28,4.53,-0.02,-0.06,0.01
7:45:12 PM,-0.89,8.45,4.21,0.03,0.06,0.01
7:45:12 PM,-0.60,8.46,4.37,0.04,-0.06,0.01
7:45:12 PM,-0.79,8.49,4.35,-0.01,-0.08,0.01
7:45:12 PM,-0.57,8.25,4.39,-0.02,-0.06,0.01
7:45:12 PM,-0.85,8.32,4.36,0.01,0.03,0.01
7:45:13 PM,-0.71,8.45,4.39,0.02,-0.01,0.01
7:45:13 PM,-1.00,8.51,4.43,0.03,-0.05,0.01
7:45:13 PM,-0.93,8.40,4.37,-0.02,-0.03,0.01
7:45:13 PM,-0.56,8.29,4.42,-0.02,-0.08,0.01
7:45:13 PM,-0.74,8.26,4.54,0.01,-0.07,0.01
7:45:13 PM,-0.93,8.39,4.37,0.04,0.03,0.01
7:45:13 PM,-0.92,8.50,4.43,0.04,-0.03,0.01
7:45:13 PM,-0.97,8.41,4.39,-0.02,-0.03,0.01
7:45:13 PM,-0.81,8.39,4.46,0.01,-0.04,0.01
7:45:13 PM,-0.68,8.37,4.33,-0.05,-0.05,0.01
7:45:14 PM,-0.66,8.20,4.62,0.03,-0.03,0.01
7:45:14 PM,-0.64,8.36,4.41,0.01,-0.02,0.01
7:45:14 PM,-1.16,8.39,4.30,0.02,0.07,0.01
7:45:14 PM,-0.59,8.39,4.42,0.02,-0.03,0.01
7:45:14 PM,-0.84,8.45,4.34,-0.00,-0.09,0.01
7:45:14 PM,-0.78,8.41,4.24,-0.01,-0.01,0.01
7:45:14 PM,-0.52,8.35,4.41,-0.02,-0.04,0.01
7:45:14 PM,-1.49,8.45,4.10,0.03,0.08,0.01
7:45:14 PM,-0.83,8.37,4.44,-0.04,-0.02,0.01
7:45:15 PM,-0.84,8.10,4.61,0.01,0.00,0.01
7:45:15 PM,-0.82,8.37,4.41,-0.02,0.04,0.01
7:45:15 PM,-0.98,8.30,4.43,-0.02,-0.00,0.01
7:45:15 PM,-1.15,8.20,4.47,0.04,0.01,0.01
7:45:15 PM,-0.92,8.10,4.83,-0.01,-0.03,0.01
7:45:15 PM,-0.90,8.35,4.54,0.07,0.04,0.01
7:45:15 PM,-1.17,8.50,4.31,0.05,-0.03,0.01
7:45:15 PM,-0.80,8.46,4.40,0.01,-0.14,0.01
7:45:15 PM,-0.71,8.40,4.28,-0.05,-0.08,0.01
7:45:15 PM,-0.72,8.35,4.57,-0.01,0.00,0.01
7:45:16 PM,-0.50,8.37,4.45,0.04,-0.04,0.01
7:45:16 PM,-0.82,8.34,4.26,0.01,-0.10,0.01
7:45:16 PM,-1.08,8.32,4.38,0.01,-0.02,0.01
7:45:16 PM,-0.67,8.40,4.62,0.07,-0.08,0.01
7:45:16 PM,-0.30,8.34,4.57,0.02,-0.13,0.01
7:45:16 PM,-0.71,8.13,4.57,0.02,-0.02,0.01
7:45:16 PM,-0.59,8.45,4.38,0.05,0.02,0.01
7:45:16 PM,-1.07,8.52,4.33,0.05,0.04,0.01
7:45:16 PM,-0.84,8.45,4.37,-0.02,-0.02,0.01
7:45:17 PM,-0.60,8.37,4.38,-0.02,-0.00,0.01
7:45:17 PM,-0.64,8.38,4.41,-0.01,-0.01,0.01
7:45:17 PM,-0.87,8.20,4.53,0.04,-0.02,0.01
7:45:17 PM,-0.79,8.44,4.48,0.07,0.02,0.01
7:45:17 PM,-1.11,8.32,4.32,-0.06,-0.04,0.01
7:45:17 PM,-0.70,8.30,4.34,-0.03,-0.06,0.01
7:45:17 PM,-0.63,8.33,4.53,0.00,0.04,0.01
7:45:17 PM,-0.91,8.34,4.40,0.01,0.02,0.01
7:45:17 PM,-0.86,8.45,4.38,0.03,0.01,0.01
7:45:17 PM,-0.88,8.46,4.30,0.02,-0.08,0.01
7:45:18 PM,-1.08,8.43,4.42,-0.01,-0.11,0.01
7:45:18 PM,-0.53,8.44,4.48,-0.00,0.03,0.01
7:45:18 PM,-0.70,8.29,4.51,-0.00,-0.03,0.01
7:45:18 PM,-0.89,8.37,4.47,0.04,-0.02,0.01
7:45:18 PM,-0.77,8.44,4.54,0.01,0.04,0.01
7:45:18 PM,-0.89,8.38,4.44,0.06,0.06,0.01
7:45:18 PM,-0.91,8.40,4.49,0.03,-0.05,0.01
7:45:18 PM,-0.80,8.52,4.34,0.03,0.01,0.01
7:45:18 PM,-0.76,8.37,4.38,0.02,-0.07,0.01
7:45:19 PM,-0.77,8.39,4.42,0.07,-0.03,0.01
7:45:19 PM,-0.70,8.47,4.45,0.04,-0.01,0.01
7:45:19 PM,-0.82,8.52,4.52,0.06,-0.08,0.01
7:45:19 PM,-0.75,8.49,4.55,0.03,-0.03,0.01
7:45:19 PM,-0.74,8.52,4.28,0.03,0.03,0.01
7:45:19 PM,-0.94,8.45,4.21,0.01,0.05,0.01
7:45:19 PM,-0.77,8.55,4.39,0.03,-0.05,0.01
7:45:19 PM,-1.18,8.42,4.30,0.01,0.03,0.01
7:45:19 PM,-0.86,8.46,4.23,0.01,-0.05,0.01
7:45:19 PM,-0.76,8.43,4.24,-0.02,-0.04,0.01
7:45:20 PM,-0.69,8.43,4.10,-0.01,-0.05,0.01
7:45:20 PM,-0.50,8.22,4.70,0.03,-0.02,0.01
7:45:20 PM,-0.84,8.39,4.37,0.02,0.00,0.01
7:45:20 PM,-0.97,8.47,4.37,0.04,0.08,0.01
7:45:20 PM,-1.05,8.54,4.31,-0.01,-0.00,0.01
7:45:20 PM,-1.05,8.53,4.13,0.02,0.09,0.01
7:45:20 PM,-0.68,8.36,4.37,-0.01,-0.06,0.01
7:45:20 PM,-0.63,8.38,4.32,-0.01,-0.02,0.01
7:45:20 PM,-0.65,8.39,4.32,-0.02,-0.02,0.01
7:45:21 PM,-0.83,8.39,4.27,-0.01,0.01,0.01
7:45:21 PM,-0.83,8.28,4.44,-0.00,-0.06,0.01
7:45:21 PM,-0.73,8.35,4.36,0.01,0.03,0.01
7:45:21 PM,-0.85,8.32,4.70,0.05,-0.09,0.01
7:45:21 PM,-1.12,8.37,4.39,0.00,-0.02,0.01
7:45:21 PM,-1.03,8.44,4.19,-0.00,-0.00,0.01
7:45:21 PM,-1.00,8.47,4.31,0.04,-0.05,0.01
7:45:21 PM,-0.80,8.49,4.48,-0.01,-0.03,0.01
7:45:21 PM,-0.88,8.32,4.63,0.00,-0.01,0.01
7:45:22 PM,-0.72,8.23,4.33,-0.02,-0.03,0.01
7:45:22 PM,-0.96,8.12,4.35,-0.04,0.04,0.01
7:45:22 PM,-1.12,8.20,4.40,-0.02,-0.04,0.01
7:45:22 PM,-1.12,8.17,4.37,-0.03,0.03,0.01
7:45:22 PM,-1.08,8.41,4.27,0.04,0.04,0.01
7:45:22 PM,-1.09,8.51,4.35,0.03,-0.04,0.01
7:45:22 PM,-1.19,8.45,4.52,-0.03,-0.05,0.01
7:45:22 PM,-0.80,8.36,4.30,-0.03,-0.03,0.01
7:45:22 PM,-0.75,8.31,4.30,-0.00,-0.04,0.01
7:45:22 PM,-0.87,8.34,4.34,0.01,-0.03,0.01
7:45:23 PM,-0.92,8.44,4.36,0.01,-0.04,0.01
7:45:23 PM,-0.80,8.34,4.41,0.02,-0.08,0.01
7:45:23 PM,-0.86,8.36,4.36,0.02,-0.04,0.01
7:45:23 PM,-0.64,8.27,4.52,-0.01,-0.02,0.01
7:45:23 PM,-0.87,8.33,4.32,-0.01,-0.07,0.01
7:45:23 PM,-0.69,8.41,4.21,-0.01,-0.05,0.01
7:45:23 PM,-0.82,8.39,4.38,0.02,-0.02,0.01
7:45:23 PM,-0.85,8.43,4.54,0.02,-0.00,0.01
7:45:23 PM,-0.57,8.37,4.46,-0.01,-0.05,0.01
7:45:24 PM,-0.90,8.38,4.14,-0.01,0.00,0.01
7:45:24 PM,-0.59,8.49,4.34,0.06,-0.01,0.01
7:45:24 PM,-1.13,8.41,4.67,0.02,-0.04,0.01
7:45:24 PM,-1.11,8.43,4.34,-0.01,0.04,0.01
7:45:24 PM,-0.97,8.43,4.36,0.03,0.09,0.01
7:45:24 PM,-0.70,8.36,4.54,-0.00,0.02,0.01
7:45:24 PM,-0.95,8.27,4.43,-0.01,-0.03,0.01
7:45:24 PM,-0.91,8.32,4.55,0.00,0.07,0.01
7:45:24 PM,-0.91,8.29,4.52,-0.00,-0.01,0.01
7:45:24 PM,-0.96,8.35,4.22,-0.02,-0.03,0.01
7:45:25 PM,-1.13,8.20,4.50,-0.01,-0.01,0.01
7:45:25 PM,-0.54,8.26,4.57,-0.04,-0.09,0.01
7:45:25 PM,-0.85,8.32,4.35,0.01,-0.02,0.01
7:45:25 PM,-0.98,8.32,4.47,0.01,-0.00,0.01
7:45:25 PM,-0.96,8.35,4.36,0.01,0.04,0.01
7:45:25 PM,-0.62,8.49,4.41,0.03,-0.06,0.01
7:45:25 PM,-0.83,8.53,4.46,0.06,-0.01,0.01
7:45:25 PM,-0.89,8.50,4.63,0.05,-0.08,0.01
7:45:25 PM,-1.06,8.44,4.41,-0.02,-0.06,0.01
7:45:26 PM,-0.78,8.28,4.47,0.00,-0.08,0.01
7:45:26 PM,-0.66,8.32,4.56,0.00,0.00,0.01
7:45:26 PM,-0.86,8.35,4.42,0.02,0.02,0.01
7:45:26 PM,-0.93,8.32,4.41,-0.01,0.03,0.01
7:45:26 PM,-1.01,8.26,4.47,0.02,0.01,0.01
7:45:26 PM,-0.91,8.35,4.46,0.03,0.03,0.01
7:45:26 PM,-0.75,8.39,4.54,0.03,0.02,0.01
7:45:26 PM,-0.84,8.37,4.25,-0.00,-0.05,0.01
7:45:26 PM,-0.91,8.39,4.26,0.02,0.01,0.01
7:45:26 PM,-0.67,8.40,4.54,0.01,-0.02,0.01
7:45:27 PM,-0.68,8.41,4.45,-0.00,0.02,0.01
7:45:27 PM,-0.82,8.33,4.42,-0.01,-0.04,0.01
7:45:27 PM,-0.74,8.40,4.32,0.02,-0.01,0.01
7:45:27 PM,-1.30,8.43,4.45,0.03,0.02,0.01
7:45:27 PM,-1.10,8.48,4.19,-0.01,0.05,0.01
7:45:27 PM,-0.85,8.39,4.25,-0.01,-0.05,0.01
7:45:27 PM,-0.89,8.31,4.51,0.02,-0.02,0.01
7:45:27 PM,-0.65,8.29,4.56,-0.02,-0.04,0.01
7:45:27 PM,-0.62,8.40,4.44,0.03,-0.02,0.01
7:45:28 PM,-1.13,8.33,4.35,0.03,0.03,0.01
7:45:28 PM,-0.88,8.34,4.36,0.00,0.00,0.01
7:45:28 PM,-0.74,8.36,4.54,0.01,-0.05,0.01
7:45:28 PM,-1.14,8.33,4.42,0.04,-0.02,0.01
7:45:28 PM,-0.86,8.48,4.43,0.02,0.01,0.01
7:45:28 PM,-0.94,8.37,4.51,0.01,-0.08,0.01
7:45:28 PM,-0.60,8.31,4.58,-0.01,-0.12,0.01
7:45:28 PM,-0.81,8.39,4.29,0.02,0.00,0.01
7:45:28 PM,-0.88,8.38,4.45,0.03,0.01,0.01
7:45:28 PM,-0.76,8.34,4.45,-0.03,-0.08,0.01
7:45:29 PM,-0.85,8.29,4.35,-0.01,0.01,0.01
7:45:29 PM,-0.69,8.36,4.36,-0.01,0.01,0.01
7:45:29 PM,-0.95,8.33,4.27,-0.02,-0.05,0.01
7:45:29 PM,-0.52,8.32,4.53,-0.01,-0.03,0.01
7:45:29 PM,-0.74,8.21,4.47,-0.02,-0.03,0.01
7:45:29 PM,-0.95,8.36,4.54,0.05,0.05,0.01
7:45:29 PM,-1.19,8.45,4.58,0.07,0.02,0.01
7:45:29 PM,-1.07,8.45,4.50,-0.00,-0.03,0.01
7:45:29 PM,-1.15,8.44,4.19,0.01,-0.01,0.01
7:45:30 PM,-0.61,8.43,4.43,0.00,-0.07,0.01
7:45:30 PM,-0.91,8.37,4.49,0.01,-0.05,0.01
7:45:30 PM,-0.73,8.36,4.47,-0.01,0.03,0.01
7:45:30 PM,-0.95,8.32,4.43,-0.01,-0.00,0.01
7:45:30 PM,-0.87,8.33,4.38,0.01,-0.01,0.01
7:45:30 PM,-0.74,8.42,4.33,0.02,-0.05,0.01
7:45:30 PM,-1.06,8.32,4.35,-0.01,-0.02,0.01
7:45:30 PM,-0.58,8.30,4.41,-0.00,-0.06,0.01
7:45:30 PM,-0.95,8.28,4.62,0.03,0.03,0.01
7:45:30 PM,-0.99,8.30,4.65,0.02,-0.04,0.01
7:45:31 PM,-0.84,8.36,4.61,0.03,0.01,0.01
7:45:31 PM,-1.09,8.37,4.49,0.00,0.03,0.01
7:45:31 PM,-0.98,8.07,4.50,-0.03,-0.02,0.01
7:45:31 PM,-0.88,8.25,4.51,0.01,-0.02,0.01
7:45:31 PM,-0.90,8.24,4.56,0.02,0.02,0.01
7:45:31 PM,-1.11,8.30,4.57,-0.01,0.00,0.01
7:45:31 PM,-0.88,8.32,4.47,0.02,-0.04,0.01
7:45:31 PM,-0.83,8.38,4.34,0.03,-0.03,0.01
7:45:31 PM,-0.74,8.46,4.28,0.05,-0.01,0.01
7:45:32 PM,-0.99,8.47,4.43,0.01,-0.02,0.01
7:45:32 PM,-0.99,8.43,4.37,0.00,-0.01,0.01
7:45:32 PM,-0.86,8.37,4.41,-0.02,-0.01,0.01
7:45:32 PM,-0.85,8.40,4.27,-0.01,-0.02,0.01
7:45:32 PM,-0.90,8.27,4.30,0.00,-0.05,0.01
7:45:32 PM,-0.66,8.28,4.54,0.01,0.01,0.01
7:45:32 PM,-0.86,8.31,4.50,-0.00,-0.01,0.01
7:45:32 PM,-0.88,8.32,4.61,0.06,0.01,0.01
7:45:32 PM,-0.99,8.41,4.33,0.01,-0.03,0.01
7:45:32 PM,-0.98,8.48,4.23,0.07,-0.05,0.01
7:45:33 PM,-0.77,8.35,4.49,-0.02,-0.02,0.01
7:45:33 PM,-0.81,8.31,4.53,0.04,-0.02,0.01
7:45:33 PM,-1.07,8.46,4.42,0.05,0.05,0.01
7:45:33 PM,-1.14,8.46,4.51,0.05,0.06,0.01
7:45:33 PM,-1.10,8.48,4.42,0.03,-0.00,0.01
7:45:33 PM,-1.06,8.51,4.29,0.04,0.08,0.01
7:45:33 PM,-0.95,8.47,4.40,-0.00,-0.02,0.01
7:45:33 PM,-0.91,8.42,4.39,-0.02,-0.03,0.01
7:45:33 PM,-0.88,8.32,4.36,-0.01,-0.03,0.01
7:45:34 PM,-0.87,8.28,4.57,-0.02,-0.03,0.01
7:45:34 PM,-0.71,8.23,4.46,-0.04,-0.05,0.01
7:45:34 PM,-1.13,8.30,4.36,-0.00,0.04,0.01
7:45:34 PM,-1.13,8.43,4.30,0.00,0.06,0.01
7:45:34 PM,-0.91,8.41,4.33,0.04,-0.02,0.01
7:45:34 PM,-0.85,8.37,4.43,0.05,-0.02,0.01
7:45:34 PM,-0.83,8.44,4.43,0.03,-0.05,0.01
7:45:34 PM,-1.04,8.42,4.48,0.00,-0.04,0.01
7:45:34 PM,-0.99,8.33,4.44,0.00,-0.06,0.01
7:45:35 PM,-0.72,8.35,4.47,0.01,0.01,0.01
7:45:35 PM,-0.78,8.38,4.35,0.01,-0.06,0.01
7:45:35 PM,-1.08,8.42,4.37,0.02,0.09,0.01
7:45:35 PM,-0.78,8.44,4.35,-0.00,0.01,0.01
7:45:35 PM,-0.95,8.29,4.30,-0.01,0.07,0.01
7:45:35 PM,-0.88,8.33,4.42,-0.00,-0.03,0.01
7:45:35 PM,-0.97,8.41,4.34,0.02,0.00,0.01
7:45:35 PM,-0.88,8.39,4.36,-0.00,-0.04,0.01
7:45:35 PM,-0.96,8.40,4.38,0.04,0.01,0.01
7:45:35 PM,-0.84,8.35,4.46,-0.04,-0.06,0.01
7:45:36 PM,-0.87,8.29,4.32,-0.02,-0.06,0.01
7:45:36 PM,-1.12,8.36,4.19,-0.01,0.04,0.01
7:45:36 PM,-0.77,8.45,4.41,0.01,-0.01,0.01
7:45:36 PM,-0.72,8.35,4.61,0.01,-0.05,0.01
7:45:36 PM,-0.84,8.44,4.35,0.01,-0.03,0.01
7:45:36 PM,-0.85,8.42,4.45,0.01,-0.06,0.01
7:45:36 PM,-1.03,8.35,4.44,-0.02,-0.04,0.01
7:45:36 PM,-0.88,8.26,4.47,0.01,-0.01,0.01
7:45:36 PM,-0.99,8.21,4.58,-0.01,-0.02,0.01
7:45:37 PM,-0.86,8.34,4.29,0.00,0.02,0.01
7:45:37 PM,-1.08,8.33,4.45,0.02,-0.06,0.01
7:45:37 PM,-0.91,8.20,4.70,-0.00,0.01,0.01
7:45:37 PM,-0.80,8.26,4.41,0.02,0.00,0.01
7:45:37 PM,-1.00,8.38,4.34,0.03,0.00,0.01
7:45:37 PM,-0.74,8.36,4.61,0.05,-0.04,0.01
7:45:37 PM,-1.13,8.49,4.39,0.05,-0.07,0.01
7:45:37 PM,-0.77,8.46,4.42,0.03,-0.03,0.01
7:45:37 PM,-0.91,8.37,4.42,0.02,-0.01,0.01
7:45:37 PM,-0.74,8.43,4.36,0.02,0.00,0.01
7:45:38 PM,-0.96,8.43,4.38,0.03,-0.03,0.01
7:45:38 PM,-0.97,8.43,4.48,0.04,-0.04,0.01
7:45:38 PM,-0.90,8.43,4.39,0.02,-0.06,0.01
7:45:38 PM,-0.97,8.44,4.28,0.03,-0.04,0.01
7:45:38 PM,-0.85,8.53,4.30,0.04,0.01,0.01
7:45:38 PM,-0.79,8.49,4.50,0.01,-0.06,0.01
7:45:38 PM,-0.82,8.46,4.42,-0.02,-0.04,0.01
7:45:38 PM,-0.45,8.40,4.46,0.00,0.04,0.01
7:45:38 PM,-0.95,8.44,4.26,0.00,0.11,0.01
7:45:39 PM,-0.76,8.43,4.45,0.02,0.05,0.01
7:45:39 PM,-1.13,8.34,4.53,0.01,-0.01,0.01
7:45:39 PM,-1.08,8.42,4.35,0.02,0.01,0.01
7:45:39 PM,-1.01,8.51,4.29,0.01,-0.01,0.01
7:45:39 PM,-0.75,8.42,4.32,0.01,-0.04,0.01
7:45:39 PM,-0.88,8.44,4.33,-0.00,-0.03,0.01
7:45:39 PM,-1.02,8.43,4.38,-0.00,-0.02,0.01
7:45:39 PM,-1.02,8.50,4.35,0.03,0.06,0.01
7:45:39 PM,-0.88,8.43,4.51,0.03,-0.00,0.01
7:45:39 PM,-0.72,8.40,4.41,-0.01,-0.08,0.01
7:45:40 PM,-1.01,8.32,4.29,-0.02,-0.02,0.01
7:45:40 PM,-0.62,8.28,4.71,0.02,-0.00,0.01
7:45:40 PM,-0.62,8.32,4.55,-0.04,-0.02,0.01
7:45:40 PM,-0.65,8.29,4.22,0.02,-0.06,0.01
7:45:40 PM,-0.62,8.26,4.45,0.00,-0.01,0.01
7:45:40 PM,-0.87,8.41,4.39,0.02,-0.02,0.01
7:45:40 PM,-0.89,8.40,4.36,-0.02,-0.03,0.01
7:45:40 PM,-0.96,8.38,4.26,-0.01,-0.02,0.01
7:45:40 PM,-1.14,8.36,4.43,-0.01,0.06,0.01
7:45:41 PM,-0.78,8.46,4.25,-0.01,0.02,0.01
7:45:41 PM,-1.15,8.31,4.43,-0.03,-0.13,0.01
7:45:41 PM,-0.99,8.31,4.48,0.00,0.07,0.01
7:45:41 PM,-0.74,8.35,4.57,0.00,0.08,0.01
7:45:41 PM,-0.63,8.40,4.38,0.02,-0.04,0.01
7:45:41 PM,-1.32,8.29,4.31,-0.01,0.01,0.01
7:45:41 PM,-0.59,8.33,4.40,0.01,-0.03,0.01
7:45:41 PM,-0.98,8.32,4.45,-0.00,-0.03,0.01
7:45:41 PM,-0.76,8.43,4.40,0.06,-0.05,0.01
7:45:41 PM,-1.00,8.49,4.27,0.05,-0.07,0.01
7:45:42 PM,-1.18,8.44,4.41,0.02,-0.02,0.01
7:45:42 PM,-0.76,8.52,4.29,-0.00,-0.03,0.01
7:45:42 PM,-1.00,8.31,4.51,-0.01,-0.14,0.01
7:45:42 PM,-1.17,8.37,4.18,0.02,0.02,0.01
7:45:42 PM,-1.14,8.31,4.45,-0.00,-0.04,0.01
7:45:42 PM,-0.29,8.45,4.45,0.04,-0.13,0.01
7:45:42 PM,-1.11,8.29,4.42,-0.03,-0.04,0.01
7:45:42 PM,-0.63,8.30,4.42,0.01,-0.02,0.01
7:45:42 PM,-0.90,8.30,4.52,0.02,-0.01,0.01
7:45:43 PM,-0.88,8.37,4.52,0.03,0.00,0.01
7:45:43 PM,-1.09,8.48,4.37,0.05,-0.03,0.01
7:45:43 PM,-1.09,8.49,4.33,0.03,-0.01,0.01
7:45:43 PM,-0.78,8.36,4.44,0.01,-0.01,0.01
7:45:43 PM,-0.67,8.27,4.27,-0.03,-0.05,0.01
7:45:43 PM,-0.71,8.34,4.36,0.01,-0.02,0.01
7:45:43 PM,-0.82,8.44,4.33,-0.02,0.02,0.01
7:45:43 PM,-1.20,8.35,4.29,-0.05,0.00,0.01
7:45:43 PM,-0.64,8.34,4.39,-0.01,-0.03,0.01
7:45:43 PM,-1.00,8.31,4.44,0.01,-0.01,0.01
7:45:44 PM,-1.13,8.32,4.36,0.02,0.04,0.01
7:45:44 PM,-0.90,8.43,4.50,0.07,-0.05,0.01
7:45:44 PM,-0.96,8.46,4.46,0.02,-0.01,0.01
7:45:44 PM,-0.97,8.45,4.23,0.00,0.00,0.01
7:45:44 PM,-0.79,8.37,4.20,0.02,-0.05,0.01
7:45:44 PM,-1.21,8.37,4.62,0.06,0.04,0.01
7:45:44 PM,-1.18,8.51,4.50,0.03,0.04,0.01
7:45:44 PM,-0.84,8.46,4.36,0.03,0.05,0.01
7:45:44 PM,-1.19,8.44,4.16,0.03,-0.02,0.01
7:45:45 PM,-1.12,8.51,4.25,0.04,0.05,0.01
7:45:45 PM,-1.48,8.39,4.40,-0.01,0.03,0.01
7:45:45 PM,-0.71,8.37,4.32,-0.03,-0.06,0.01
7:45:45 PM,-0.97,8.20,4.25,-0.08,-0.05,0.01
7:45:45 PM,-1.01,8.27,4.37,0.04,-0.01,0.01
7:45:45 PM,-0.66,8.33,4.81,0.06,-0.06,0.01
7:45:45 PM,-0.63,8.43,4.16,-0.01,-0.12,0.01
7:45:45 PM,-0.49,8.42,4.01,0.01,-0.00,0.01
7:45:45 PM,-0.67,8.45,4.37,0.00,-0.01,0.01
7:45:46 PM,-0.76,8.45,4.25,-0.02,-0.02,0.01
7:45:46 PM,-0.98,8.25,4.41,-0.00,0.02,0.01
7:45:46 PM,-1.06,8.36,4.51,0.02,0.04,0.01
7:45:46 PM,-1.00,8.49,4.36,0.02,0.06,0.01
7:45:46 PM,-1.35,8.43,4.26,-0.02,0.03,0.01
7:45:46 PM,-1.01,8.27,4.63,0.03,-0.02,0.01
7:45:46 PM,-0.43,8.43,4.45,0.02,-0.02,0.01
7:45:46 PM,-0.71,8.24,4.23,0.04,0.03,0.01
7:45:46 PM,-0.94,8.35,4.34,-0.00,0.02,0.01
7:45:46 PM,-0.69,8.44,4.54,0.02,-0.07,0.01
7:45:47 PM,-0.96,8.28,4.51,-0.02,0.01,0.01
7:45:47 PM,-1.09,8.31,4.30,0.00,-0.10,0.01
7:45:47 PM,-0.39,8.32,4.52,0.01,0.06,0.01
7:45:47 PM,-0.98,8.31,4.49,0.04,-0.10,0.01
7:45:47 PM,-0.95,8.42,4.34,0.05,0.02,0.01
7:45:47 PM,-1.47,8.43,4.37,0.03,-0.02,0.01
7:45:47 PM,-1.02,8.52,4.22,0.02,-0.06,0.01
7:45:47 PM,-0.87,8.48,4.36,-0.00,-0.02,0.01
7:45:47 PM,-0.87,8.44,4.58,0.04,-0.03,0.01
7:45:48 PM,-1.06,8.32,4.57,-0.02,-0.03,0.01
7:45:48 PM,-0.78,8.35,4.38,0.03,0.00,0.01
7:45:48 PM,-1.06,8.36,4.27,0.01,0.08,0.01
7:45:48 PM,-0.66,8.50,4.26,-0.00,-0.03,0.01
7:45:48 PM,-1.00,8.39,4.44,0.00,-0.01,0.01
7:45:48 PM,-0.55,8.43,4.41,-0.02,-0.04,0.01
7:45:48 PM,-0.62,8.26,4.60,0.02,-0.04,0.01
7:45:48 PM,-0.63,8.36,4.29,0.01,0.02,0.01
7:45:48 PM,-0.79,8.22,4.43,-0.02,0.02,0.01
7:45:48 PM,-0.87,8.40,4.34,0.04,0.01,0.01
7:45:49 PM,-0.97,8.47,4.25,0.03,0.01,0.01
7:45:49 PM,-0.83,8.47,4.33,-0.01,-0.03,0.01
7:45:49 PM,-0.91,8.38,4.30,-0.04,-0.04,0.01
7:45:49 PM,-1.02,8.21,4.57,-0.02,-0.03,0.01
7:45:49 PM,-0.77,8.33,4.42,0.04,-0.02,0.01
7:45:49 PM,-1.02,8.57,4.33,0.01,0.02,0.01
7:45:49 PM,-0.88,8.47,4.26,0.01,-0.04,0.01
7:45:49 PM,-0.73,8.44,4.23,0.04,-0.03,0.01
7:45:49 PM,-0.69,8.39,4.61,0.00,-0.05,0.01
7:45:50 PM,-1.11,8.37,4.31,-0.04,-0.02,0.01
7:45:50 PM,-1.01,8.27,4.47,0.06,0.05,0.01
7:45:50 PM,-0.68,8.48,4.37,0.07,-0.01,0.01
7:45:50 PM,-1.36,8.55,4.17,-0.01,0.04,0.01
7:45:50 PM,-0.76,8.40,4.43,-0.02,0.03,0.01
7:45:50 PM,-0.67,8.49,4.07,0.02,-0.03,0.01
7:45:50 PM,-0.48,8.35,4.27,-0.01,-0.09,0.01
7:45:50 PM,-1.37,8.26,4.52,-0.04,-0.02,0.01
7:45:50 PM,-0.69,8.45,4.45,-0.02,0.06,0.01
7:45:50 PM,-0.68,8.30,4.48,0.02,0.01,0.01
7:45:51 PM,-1.22,8.38,4.47,0.05,0.02,0.01
7:45:51 PM,-0.55,8.61,4.23,0.05,-0.06,0.01
7:45:51 PM,-1.37,8.43,4.32,-0.00,0.02,0.01
7:45:51 PM,-0.49,8.45,4.24,-0.07,-0.06,0.01
7:45:51 PM,-0.97,8.29,4.19,-0.03,-0.00,0.01
7:45:51 PM,-1.10,8.51,4.20,0.03,-0.00,0.01
7:45:51 PM,-0.99,8.47,4.50,-0.00,0.02,0.01
7:45:51 PM,-0.99,8.47,4.34,-0.01,-0.04,0.01
7:45:51 PM,-0.96,8.42,4.27,0.01,-0.06,0.01
7:45:52 PM,-0.72,8.31,4.40,0.00,-0.04,0.01
7:45:52 PM,-0.72,8.35,4.37,0.01,-0.01,0.01
7:45:52 PM,-0.72,8.27,4.54,0.03,-0.02,0.01
7:45:52 PM,-0.83,8.37,4.45,0.02,0.04,0.01
7:45:52 PM,-0.72,8.43,4.46,0.01,-0.08,0.01
7:45:52 PM,-0.83,8.45,4.39,0.05,-0.00,0.01
7:45:52 PM,-0.91,8.42,4.42,0.04,0.09,0.01
7:45:52 PM,-1.04,8.51,4.43,0.05,0.09,0.01
7:45:52 PM,-0.74,8.52,4.18,-0.01,-0.02,0.01
7:45:52 PM,-0.91,8.38,4.37,0.03,-0.10,0.01
7:45:53 PM,-0.38,8.41,4.59,-0.00,-0.02,0.01
7:45:53 PM,-0.93,8.36,4.31,-0.02,0.03,0.01
7:45:53 PM,-0.82,8.32,4.51,-0.00,0.00,0.01
7:45:53 PM,-0.70,8.44,4.24,0.02,-0.03,0.01
7:45:53 PM,-0.94,8.33,4.40,0.02,-0.07,0.01
7:45:53 PM,-0.99,8.51,4.48,0.03,0.00,0.01
7:45:53 PM,-1.03,8.47,4.20,0.01,-0.02,0.01
7:45:53 PM,-0.84,8.46,4.12,-0.00,0.01,0.01
7:45:53 PM,-0.83,8.43,4.43,0.03,-0.04,0.01
7:45:54 PM,-1.00,8.52,4.35,0.02,-0.05,0.01
7:45:54 PM,-0.92,8.31,4.39,-0.03,-0.03,0.01
7:45:54 PM,-0.79,8.20,4.55,-0.02,-0.03,0.01
7:45:54 PM,-0.91,8.33,4.56,0.04,0.01,0.01
7:45:54 PM,-0.95,8.42,4.42,0.02,-0.02,0.01
7:45:54 PM,-0.77,8.41,4.07,0.01,-0.06,0.01
7:45:54 PM,-0.89,8.39,4.34,0.04,-0.02,0.01
7:45:54 PM,-0.82,8.37,4.59,-0.01,-0.05,0.01
7:45:54 PM,-0.95,8.32,4.48,0.01,0.06,0.01
7:45:54 PM,-1.06,8.41,4.48,0.07,0.01,0.01
7:45:55 PM,-0.84,8.50,4.44,0.03,0.03,0.01
7:45:55 PM,-1.04,8.45,4.36,0.05,-0.02,0.01
7:45:55 PM,-0.67,8.37,4.28,-0.01,-0.06,0.01
7:45:55 PM,-0.68,8.22,4.25,-0.03,-0.03,0.01
7:45:55 PM,-0.91,8.39,4.27,0.03,0.01,0.01
7:45:55 PM,-0.93,8.54,4.54,0.01,0.02,0.01
7:45:55 PM,-0.87,8.32,4.43,-0.05,-0.06,0.01
7:45:55 PM,-0.88,8.33,4.38,0.02,0.06,0.01
7:45:55 PM,-0.75,8.54,4.32,0.05,-0.03,0.01
7:45:56 PM,-1.13,8.53,4.31,0.03,0.01,0.01
7:45:56 PM,-0.57,8.50,4.41,0.02,-0.03,0.01
7:45:56 PM,-0.88,8.43,4.22,-0.00,-0.02,0.01
7:45:56 PM,-0.96,8.39,4.41,-0.03,-0.01,0.01
7:45:56 PM,-0.67,8.40,4.58,0.07,0.03,0.01
7:45:56 PM,-1.05,8.58,3.98,0.00,-0.02,0.01
7:45:56 PM,-0.99,8.46,4.48,0.01,-0.00,0.01
7:45:56 PM,-0.72,8.33,4.66,-0.02,-0.04,0.01
7:45:56 PM,-0.71,8.35,4.26,0.01,-0.01,0.01
7:45:57 PM,-0.91,8.36,4.40,0.05,-0.04,0.01
7:45:57 PM,-0.97,8.45,4.36,-0.02,0.00,0.01
7:45:57 PM,-0.76,8.45,4.29,0.00,-0.05,0.01
7:45:57 PM,-0.81,8.34,4.57,0.06,-0.01,0.01
7:45:57 PM,-1.01,8.41,4.35,0.03,-0.04,0.01
7:45:57 PM,-0.75,8.54,4.42,0.03,0.04,0.01
7:45:57 PM,-0.85,8.46,4.26,0.05,0.01,0.01
7:45:57 PM,-0.66,8.42,4.44,-0.02,0.02,0.01
7:45:57 PM,-0.76,8.26,4.33,-0.04,-0.06,0.01
7:45:57 PM,-0.72,8.44,4.08,-0.01,0.05,0.01
7:45:58 PM,-0.82,8.46,4.30,0.01,0.01,0.01
7:45:58 PM,-0.63,8.43,4.40,0.04,-0.03,0.01
7:45:58 PM,-0.82,8.40,4.47,0.00,-0.04,0.01
7:45:58 PM,-0.75,8.42,4.33,0.02,-0.01,0.01
7:45:58 PM,-0.81,8.43,4.19,0.00,-0.05,0.01
7:45:58 PM,-0.61,8.43,4.26,0.01,-0.04,0.01
7:45:58 PM,-0.36,8.50,4.18,0.01,-0.07,0.01
7:45:58 PM,-0.79,8.35,4.48,0.03,-0.02,0.01
7:45:58 PM,-0.46,8.54,4.31,0.03,0.00,0.01
7:45:59 PM,-0.91,8.52,4.18,0.04,0.01,0.01
7:45:59 PM,-0.80,8.53,4.13,0.01,-0.01,0.01
7:45:59 PM,-0.61,8.62,4.30,0.05,-0.07,0.01
7:45:59 PM,-0.85,8.53,4.46,-0.02,-0.03,0.01
7:45:59 PM,-0.50,8.47,4.09,0.00,-0.02,0.01
7:45:59 PM,-0.76,8.40,4.15,-0.04,-0.02,0.01
7:45:59 PM,-0.72,8.54,4.15,0.03,-0.04,0.01
7:45:59 PM,-0.89,8.54,4.27,0.05,0.02,0.01
7:45:59 PM,-0.79,8.64,4.22,0.04,-0.03,0.01
7:45:59 PM,-0.52,8.70,4.23,-0.02,-0.06,0.01
7:46:00 PM,-1.08,8.44,4.05,-0.04,-0.12,0.01
7:46:00 PM,-0.62,8.37,3.94,-0.02,-0.13,0.01
7:46:00 PM,-0.14,8.47,4.43,0.05,-0.05,0.01
7:46:00 PM,-0.82,8.38,4.56,0.03,0.00,0.01
7:46:00 PM,-0.35,8.43,4.34,0.04,-0.03,0.01
7:46:00 PM,-0.49,8.36,4.37,-0.05,-0.13,0.01
7:46:00 PM,-0.28,8.36,4.14,0.01,-0.06,0.01
7:46:00 PM,-0.82,8.43,4.29,0.06,-0.02,0.01
7:46:00 PM,-0.51,8.60,4.42,0.02,-0.01,0.01
7:46:01 PM,-0.69,8.53,4.13,-0.01,-0.03,0.01
7:46:01 PM,-0.32,8.47,4.15,0.01,-0.04,0.01
7:46:01 PM,-0.71,8.38,4.37,-0.01,-0.01,0.01
7:46:01 PM,-0.41,8.27,4.31,-0.02,-0.03,0.01
7:46:01 PM,-0.70,8.36,4.40,0.01,-0.02,0.01
7:46:01 PM,-0.69,8.48,4.34,0.03,-0.01,0.01
7:46:01 PM,-0.67,8.48,4.34,0.02,-0.02,0.01
7:46:01 PM,-0.72,8.54,4.20,0.03,0.03,0.01
7:46:01 PM,-0.89,8.56,4.40,0.04,0.01,0.01
7:46:01 PM,-0.50,8.61,4.38,0.03,-0.03,0.01
7:46:02 PM,-0.96,8.55,4.19,0.01,-0.02,0.01
7:46:02 PM,-0.58,8.50,4.13,-0.03,-0.03,0.01
7:46:02 PM,-0.48,8.46,4.22,0.01,-0.07,0.01
7:46:02 PM,-0.76,8.53,4.19,0.01,-0.08,0.01
7:46:02 PM,-0.59,8.58,4.27,0.02,0.03,0.01
7:46:02 PM,-0.78,8.47,4.37,-0.01,-0.02,0.01
7:46:02 PM,-0.57,8.47,4.15,-0.03,-0.03,0.01
7:46:02 PM,-0.74,8.48,3.98,0.00,0.01,0.01
7:46:02 PM,-0.40,8.45,4.33,0.01,-0.04,0.01
7:46:03 PM,-0.50,8.49,4.26,-0.00,-0.01,0.01
7:46:03 PM,-0.74,8.39,4.30,0.01,0.01,0.01
7:46:03 PM,-0.84,8.46,4.29,0.02,0.00,0.01
7:46:03 PM,-0.85,8.57,4.34,0.02,0.01,0.01
7:46:03 PM,-0.71,8.53,4.23,-0.00,-0.02,0.01
7:46:03 PM,-0.58,8.49,4.34,0.01,0.01,0.01
7:46:03 PM,-0.86,8.47,4.16,0.00,-0.02,0.01
7:46:03 PM,-0.57,8.40,4.38,-0.03,-0.06,0.01
7:46:03 PM,-0.70,8.32,4.44,0.00,0.01,0.01
7:46:03 PM,-0.65,8.28,4.53,0.02,-0.05,0.01
7:46:04 PM,-0.86,8.43,4.28,0.04,-0.04,0.01
7:46:04 PM,-0.86,8.48,4.29,0.02,0.00,0.01
7:46:04 PM,-0.92,8.48,4.28,0.00,0.01,0.01
7:46:04 PM,-0.78,8.45,4.36,0.02,-0.01,0.01
7:46:04 PM,-0.95,8.48,4.06,-0.03,-0.09,0.01
7:46:04 PM,-0.49,8.51,4.23,0.02,-0.03,0.01
7:46:04 PM,-0.79,8.53,4.48,0.00,-0.04,0.01
7:46:04 PM,-0.68,8.56,4.16,0.02,0.02,0.01
7:46:04 PM,-0.83,8.51,4.26,-0.00,-0.03,0.01
7:46:05 PM,-0.69,8.49,4.33,-0.04,-0.02,0.01
7:46:05 PM,-0.65,8.38,4.25,-0.04,-0.05,0.01
7:46:05 PM,-0.65,8.37,4.23,-0.01,-0.03,0.01
7:46:05 PM,-0.66,8.50,4.35,0.00,-0.03,0.01
7:46:05 PM,-0.56,8.44,4.36,0.01,-0.04,0.01
7:46:05 PM,-0.82,8.38,4.33,-0.04,-0.01,0.01
7:46:05 PM,-0.46,8.44,4.35,-0.01,-0.01,0.01
7:46:05 PM,-0.84,8.33,4.30,-0.02,-0.02,0.01
7:46:05 PM,-0.54,8.35,4.41,0.03,-0.05,0.01
7:46:05 PM,-0.80,8.31,4.39,0.02,-0.05,0.01
7:46:06 PM,-0.79,8.43,4.45,0.04,-0.05,0.01
7:46:06 PM,-0.60,8.46,4.54,0.02,-0.01,0.01
7:46:06 PM,-0.65,8.33,4.22,-0.05,-0.01,0.01
7:46:06 PM,-0.75,8.35,4.14,-0.01,-0.01,0.01
7:46:06 PM,-0.62,8.40,4.36,-0.00,-0.03,0.01
7:46:06 PM,-0.62,8.35,4.49,0.04,-0.03,0.01
7:46:06 PM,-0.65,8.46,4.33,0.02,0.03,0.01
7:46:06 PM,-0.61,8.33,4.43,0.01,-0.01,0.01
7:46:06 PM,-0.75,8.37,4.39,0.04,0.04,0.01
7:46:07 PM,-0.90,8.41,4.41,0.01,-0.02,0.01
7:46:07 PM,-0.83,8.44,4.30,0.03,-0.01,0.01
7:46:07 PM,-0.91,8.44,4.54,0.05,-0.02,0.01
7:46:07 PM,-0.78,8.43,4.50,-0.00,0.02,0.01
7:46:07 PM,-0.83,8.37,3.96,0.01,-0.04,0.01
7:46:07 PM,-0.59,8.46,4.10,0.01,-0.00,0.01
7:46:07 PM,-0.69,8.37,4.54,-0.02,-0.05,0.01
7:46:07 PM,-0.73,8.29,4.38,-0.07,-0.04,0.01
7:46:07 PM,-0.96,8.34,4.25,0.06,0.03,0.01
7:46:07 PM,-0.94,8.46,4.47,0.07,0.03,0.01
7:46:08 PM,-1.01,8.51,4.29,0.00,-0.06,0.01
7:46:08 PM,-0.74,8.48,4.13,0.01,-0.04,0.01
7:46:08 PM,-1.02,8.59,4.29,0.03,-0.04,0.01
7:46:08 PM,-0.75,8.51,4.33,-0.01,-0.06,0.01
7:46:08 PM,-0.84,8.38,4.40,0.00,0.02,0.01
7:46:08 PM,-0.63,8.40,4.26,-0.02,0.02,0.01
7:46:08 PM,-0.88,8.32,4.28,-0.01,0.01,0.01
7:46:08 PM,-0.68,8.34,4.44,0.03,-0.01,0.01
7:46:08 PM,-0.78,8.39,4.07,-0.03,-0.05,0.01
7:46:09 PM,-0.91,8.41,4.26,0.00,0.03,0.01
7:46:09 PM,-0.57,8.46,4.31,-0.02,-0.01,0.01
7:46:09 PM,-0.84,8.27,4.46,-0.03,-0.07,0.01
7:46:09 PM,-0.83,8.39,4.17,-0.03,-0.07,0.01
7:46:09 PM,-0.96,8.35,4.29,-0.00,-0.04,0.01
7:46:09 PM,-0.60,8.41,4.45,-0.02,-0.02,0.01
7:46:09 PM,-0.77,8.43,4.33,0.01,-0.00,0.01
7:46:09 PM,-0.70,8.28,4.36,-0.02,-0.08,0.01
7:46:09 PM,-0.76,8.35,4.32,-0.00,-0.03,0.01
7:46:10 PM,-0.83,8.47,4.59,0.03,-0.05,0.01
7:46:10 PM,-0.88,8.38,4.42,-0.03,-0.04,0.01
7:46:10 PM,-0.53,8.40,3.83,0.02,0.05,0.01
7:46:10 PM,-0.77,8.46,4.40,0.02,-0.06,0.01
7:46:10 PM,-0.81,8.31,4.64,0.03,0.00,0.01
7:46:10 PM,-0.94,8.32,4.58,0.02,0.04,0.01
7:46:10 PM,-0.70,8.23,4.53,0.04,-0.04,0.01
7:46:10 PM,-0.83,8.37,4.45,0.05,0.02,0.01
7:46:10 PM,-0.65,8.30,4.55,-0.01,-0.07,0.01
7:46:10 PM,-1.05,8.26,4.44,0.04,-0.02,0.01
7:46:11 PM,-0.71,8.45,4.21,-0.00,0.02,0.01
7:46:11 PM,-0.76,8.35,4.26,-0.03,-0.04,0.01
7:46:11 PM,-0.61,8.35,4.31,-0.02,-0.04,0.01
7:46:11 PM,-0.86,8.35,4.62,0.06,0.03,0.01
7:46:11 PM,-0.61,8.41,4.67,0.03,-0.05,0.01
7:46:11 PM,-1.13,8.40,4.28,0.04,-0.01,0.01
7:46:11 PM,-0.57,8.51,4.32,0.05,-0.02,0.01
7:46:11 PM,-0.88,8.52,4.38,0.03,-0.04,0.01
7:46:11 PM,-0.89,8.50,4.49,0.03,0.01,0.01
7:46:12 PM,-1.25,8.33,4.37,-0.00,-0.05,0.01
7:46:12 PM,-0.74,8.22,4.30,-0.06,-0.07,0.01
7:46:12 PM,-0.83,8.16,4.44,0.02,-0.10,0.01
7:46:12 PM,-0.45,8.46,4.46,0.01,0.02,0.01
7:46:12 PM,-0.97,8.43,4.34,0.02,0.03,0.01
7:46:12 PM,-0.96,8.45,4.36,0.02,0.03,0.01
7:46:12 PM,-0.89,8.48,4.39,0.03,-0.02,0.01
7:46:12 PM,-0.80,8.51,4.32,-0.01,-0.05,0.01
7:46:12 PM,-0.62,8.35,4.39,-0.00,-0.03,0.01
7:46:12 PM,-0.62,8.36,4.09,-0.03,-0.05,0.01
7:46:13 PM,-0.51,8.38,4.42,-0.01,-0.03,0.01
7:46:13 PM,-0.65,8.31,4.39,-0.02,-0.01,0.01
7:46:13 PM,-0.62,8.28,4.39,0.00,0.03,0.01
7:46:13 PM,-0.87,8.37,4.29,0.04,0.00,0.01
7:46:13 PM,-0.97,8.53,4.15,0.11,0.01,0.01
7:46:13 PM,-0.76,8.61,4.50,0.01,-0.05,0.01
7:46:13 PM,-0.51,8.50,4.31,-0.04,-0.13,0.01
7:46:13 PM,-1.00,8.26,4.32,-0.01,0.04,0.01
7:46:13 PM,-0.48,8.39,4.26,-0.00,-0.01,0.01
7:46:14 PM,-0.71,8.39,4.38,0.03,-0.01,0.01
7:46:14 PM,-0.96,8.43,4.50,0.05,-0.01,0.01
7:46:14 PM,-0.55,8.53,4.62,0.03,0.02,0.01
7:46:14 PM,-0.93,8.48,4.37,0.01,0.06,0.01
7:46:14 PM,-0.71,8.51,4.42,0.03,-0.01,0.01
7:46:14 PM,-1.05,8.56,4.49,0.03,0.07,0.01
7:46:14 PM,-0.77,8.37,4.35,-0.05,-0.05,0.01
7:46:14 PM,-0.77,8.23,4.56,0.04,0.02,0.01
7:46:14 PM,-0.71,8.49,4.42,0.02,0.07,0.01
7:46:14 PM,-0.71,8.57,4.42,0.00,0.03,0.01
7:46:15 PM,-0.64,8.43,4.23,-0.03,-0.03,0.01
7:46:15 PM,-0.59,8.37,4.17,-0.01,-0.07,0.01
7:46:15 PM,-0.65,8.46,4.20,-0.01,-0.05,0.01
7:46:15 PM,-0.68,8.32,4.65,-0.03,-0.03,0.01
7:46:15 PM,-0.79,8.16,4.57,-0.05,-0.07,0.01
7:46:15 PM,-0.62,8.26,4.34,-0.03,-0.03,0.01
7:46:15 PM,-0.79,8.35,4.23,0.04,0.05,0.01
7:46:15 PM,-0.69,8.39,4.47,0.02,-0.05,0.01
7:46:15 PM,-1.22,8.48,4.34,-0.01,-0.02,0.01
7:46:16 PM,-0.71,8.31,4.43,0.01,-0.05,0.01
7:46:16 PM,-0.72,8.49,4.26,0.01,0.00,0.01
7:46:16 PM,-0.76,8.25,4.58,-0.03,-0.01,0.01
7:46:16 PM,-0.40,8.36,4.35,-0.04,-0.02,0.01
7:46:16 PM,-0.96,8.34,4.51,0.04,0.04,0.01
7:46:16 PM,-0.78,8.35,4.52,0.00,-0.03,0.01
7:46:16 PM,-1.00,8.30,4.64,0.03,-0.00,0.01
7:46:16 PM,-0.78,8.24,4.52,-0.01,-0.04,0.01
7:46:16 PM,-0.78,8.43,4.21,-0.02,-0.00,0.01
7:46:16 PM,-0.40,8.43,4.23,0.03,-0.04,0.01
7:46:17 PM,-0.63,8.49,4.42,0.04,-0.04,0.01
7:46:17 PM,-0.60,8.51,4.55,-0.00,0.00,0.01
7:46:17 PM,-0.78,8.34,4.69,-0.04,0.33,0.01
7:46:17 PM,-0.58,8.47,4.16,-0.00,0.03,0.01
7:46:17 PM,-0.90,8.39,4.51,0.06,0.04,0.01
7:46:17 PM,-0.56,8.44,4.73,0.03,-0.09,0.01
7:46:17 PM,-0.75,8.41,4.32,-0.00,-0.09,0.01
7:46:17 PM,-0.94,8.47,4.44,0.03,-0.02,0.01
7:46:17 PM,-0.79,8.39,4.52,-0.02,0.00,0.01
7:46:18 PM,-0.61,8.41,4.23,-0.00,0.00,0.01
7:46:18 PM,-0.74,8.43,4.31,0.01,0.05,0.01
7:46:18 PM,-1.48,8.22,4.58,0.00,0.04,0.01
7:46:18 PM,-0.59,8.47,4.55,0.05,0.05,0.01
7:46:18 PM,-1.24,8.34,4.58,0.02,-0.03,0.01
7:46:18 PM,-0.59,8.55,4.34,0.04,-0.13,0.01
7:46:18 PM,-1.23,8.40,4.33,0.03,-0.07,0.01
7:46:18 PM,-0.61,8.50,4.43,0.06,-0.00,0.01
7:46:18 PM,-0.90,8.34,4.59,-0.00,-0.02,0.01
7:46:18 PM,-0.36,8.42,4.18,-0.03,-0.04,0.01
7:46:19 PM,-1.02,8.29,4.34,0.02,0.02,0.01
7:46:19 PM,-0.57,8.24,4.79,-0.01,-0.11,0.01
7:46:19 PM,-0.86,8.22,4.30,-0.04,-0.04,0.01
7:46:19 PM,-0.71,8.41,4.31,0.05,-0.04,0.01
7:46:19 PM,-0.74,8.43,4.48,0.03,-0.01,0.01
7:46:19 PM,-1.11,8.41,4.43,0.03,-0.02,0.01
7:46:19 PM,-1.28,8.32,4.65,0.02,0.12,0.01
7:46:19 PM,-0.54,8.47,4.42,0.00,-0.06,0.01
7:46:19 PM,-0.60,8.40,4.35,0.01,-0.02,0.01
7:46:20 PM,-0.55,8.32,4.36,-0.03,-0.09,0.01
7:46:20 PM,-0.34,8.29,4.48,-0.01,0.01,0.01
7:46:20 PM,-0.69,8.38,4.39,0.01,-0.01,0.01
7:46:20 PM,-0.45,8.43,4.47,0.03,0.03,0.01
7:46:20 PM,-0.82,8.36,4.49,0.02,0.04,0.01
7:46:20 PM,-0.73,8.32,4.54,0.01,-0.00,0.01
7:46:20 PM,-1.05,8.38,4.35,0.02,0.03,0.01
7:46:20 PM,-0.60,8.42,4.49,0.01,-0.01,0.01
7:46:20 PM,-0.75,8.40,4.25,0.04,-0.04,0.01
7:46:20 PM,-0.62,8.47,4.45,0.05,-0.03,0.01
7:46:21 PM,-0.95,8.42,4.63,0.03,-0.04,0.01
7:46:21 PM,-0.59,8.50,4.42,0.01,0.04,0.01
7:46:21 PM,-0.64,8.44,4.09,-0.02,-0.07,0.01
7:46:21 PM,-0.62,8.38,4.10,-0.02,-0.05,0.01
7:46:21 PM,-0.38,8.42,4.51,0.03,-0.00,0.01
7:46:21 PM,-0.68,8.42,4.41,0.00,-0.11,0.01
7:46:21 PM,-0.63,8.36,4.44,-0.01,0.01,0.01
7:46:21 PM,-0.67,8.31,4.30,-0.01,-0.02,0.01
7:46:21 PM,-0.71,8.27,4.45,0.04,-0.02,0.01
7:46:22 PM,-0.78,8.47,4.46,0.05,-0.06,0.01
7:46:22 PM,-0.92,8.43,4.58,0.01,-0.04,0.01
7:46:22 PM,-0.22,8.48,4.40,0.00,-0.08,0.01
7:46:22 PM,-1.05,8.38,4.35,0.02,-0.02,0.01
7:46:22 PM,-0.59,8.46,4.55,0.04,-0.07,0.01
7:46:22 PM,-0.81,8.41,4.63,0.01,0.05,0.01
7:46:22 PM,-0.91,8.38,4.38,0.04,0.04,0.01
7:46:22 PM,-0.57,8.50,4.26,0.02,-0.06,0.01
7:46:22 PM,-0.74,8.42,4.23,-0.02,0.01,0.01
7:46:23 PM,-0.42,8.35,4.35,-0.05,-0.04,0.01
7:46:23 PM,-0.64,8.28,4.25,-0.02,-0.08,0.01
7:46:23 PM,-0.75,8.31,4.33,-0.04,0.01,0.01
7:46:23 PM,-0.37,8.32,4.22,-0.02,0.04,0.01
7:46:23 PM,-0.64,8.29,4.54,0.11,0.03,0.01
7:46:23 PM,-0.79,8.58,4.46,0.02,-0.04,0.01
7:46:23 PM,-1.01,8.41,4.29,-0.02,0.03,0.01
7:46:23 PM,-0.53,8.46,4.19,0.00,-0.04,0.01
7:46:23 PM,-0.66,8.36,4.23,-0.01,-0.03,0.01
7:46:23 PM,-0.60,8.37,4.30,-0.02,-0.04,0.01
7:46:24 PM,-0.76,8.31,4.33,0.01,-0.02,0.01
7:46:24 PM,-0.47,8.32,4.41,0.00,-0.04,0.01
7:46:24 PM,-0.44,8.27,4.55,0.02,0.03,0.01
7:46:24 PM,-0.75,8.38,4.32,0.02,0.01,0.01
7:46:24 PM,-0.76,8.43,4.37,0.04,0.01,0.01
7:46:24 PM,-0.70,8.52,4.54,0.02,-0.02,0.01
7:46:24 PM,-0.35,8.44,4.91,0.01,0.21,0.01
7:46:24 PM,-0.12,8.41,4.46,0.00,-0.07,0.01
7:46:24 PM,-0.67,8.32,4.44,-0.04,-0.03,0.01
7:46:25 PM,-0.47,8.33,4.48,0.02,0.01,0.01
7:46:25 PM,-0.41,8.23,4.50,0.02,-0.06,0.01
7:46:25 PM,-0.58,8.43,4.48,0.01,0.02,0.01
7:46:25 PM,-0.62,8.41,4.31,0.03,-0.04,0.01
7:46:25 PM,-0.20,8.43,4.21,-0.02,-0.04,0.01
7:46:25 PM,-0.28,8.50,4.28,0.02,-0.10,0.01
7:46:25 PM,-0.57,8.38,4.30,-0.03,-0.02,0.01
7:46:25 PM,-0.54,8.26,4.40,-0.02,-0.07,0.01
7:46:25 PM,-0.37,8.30,4.49,-0.03,-0.04,0.01
7:46:25 PM,-0.62,8.31,4.40,-0.03,0.01,0.01
7:46:26 PM,-0.41,8.44,4.45,0.05,0.04,0.01
7:46:26 PM,-0.46,8.47,4.47,0.02,-0.05,0.01
7:46:26 PM,-0.74,8.47,4.31,0.02,-0.02,0.01
7:46:26 PM,-0.58,8.42,4.34,-0.01,-0.03,0.01
7:46:26 PM,-0.57,8.43,4.39,0.07,-0.09,0.01
7:46:26 PM,-0.64,8.49,4.23,-0.01,0.05,0.01
7:46:26 PM,-0.62,8.38,4.14,-0.04,-0.03,0.01
7:46:26 PM,-0.49,8.33,4.37,-0.01,0.05,0.01
7:46:26 PM,-0.49,8.37,4.60,0.03,-0.03,0.01
7:46:27 PM,-0.41,8.26,4.67,0.02,-0.10,0.01
7:46:27 PM,-0.54,8.38,4.09,-0.05,0.00,0.01
7:46:27 PM,-0.33,8.42,4.09,-0.00,0.02,0.01
7:46:27 PM,-0.23,8.43,4.53,0.02,-0.07,0.01
7:46:27 PM,-0.72,8.42,4.47,0.02,-0.02,0.01
7:46:27 PM,-0.49,8.32,4.43,-0.00,-0.07,0.01
7:46:27 PM,-0.78,8.24,4.37,-0.02,0.03,0.01
7:46:27 PM,-0.53,8.40,4.35,0.01,-0.02,0.01
7:46:27 PM,-0.63,8.35,4.52,0.00,-0.01,0.01
7:46:28 PM,-0.53,8.38,4.43,0.01,-0.02,0.01
7:46:28 PM,-0.70,8.20,4.48,-0.02,-0.04,0.01
7:46:28 PM,-0.59,8.43,4.26,0.03,0.10,0.01
7:46:28 PM,-0.69,8.33,4.51,0.01,-0.00,0.01
7:46:28 PM,-0.59,8.43,4.28,0.02,0.02,0.01
7:46:29 PM,-0.86,8.16,4.33,-0.07,0.00,0.01
7:46:30 PM,-0.54,8.30,4.25,-0.02,0.01,0.01
7:46:30 PM,-0.61,8.28,4.49,0.02,-0.02,0.01
7:46:30 PM,-0.57,8.33,4.67,0.02,-0.04,0.01
7:46:30 PM,-0.64,8.20,4.66,-0.01,-0.03,0.01
7:46:30 PM,-0.43,8.27,4.43,0.02,0.03,0.01
7:46:30 PM,-0.40,8.32,4.41,0.00,0.01,0.01
7:46:30 PM,-0.33,8.44,4.29,0.02,0.02,0.01
7:46:30 PM,-0.62,8.41,4.39,0.03,0.06,0.01
7:46:30 PM,-0.76,8.50,4.08,0.02,-0.02,0.01
7:46:30 PM,-0.55,8.33,4.37,-0.00,-0.06,0.01
7:46:30 PM,-0.19,8.26,4.48,0.01,-0.07,0.01
7:46:30 PM,-0.66,8.34,4.41,0.01,-0.05,0.01
7:46:30 PM,-0.22,8.45,4.42,0.02,-0.03,0.01
7:46:30 PM,-0.85,8.43,4.45,-0.01,0.00,0.01
7:46:31 PM,-0.43,8.34,4.38,-0.01,-0.01,0.01
7:46:31 PM,-0.57,8.47,4.35,0.02,0.00,0.01
7:46:31 PM,-0.44,8.42,4.56,0.03,-0.03,0.01
7:46:31 PM,-0.67,8.45,4.52,0.03,0.09,0.01
7:46:31 PM,-0.57,8.45,4.49,0.03,-0.01,0.01
7:46:31 PM,-0.64,8.40,4.47,0.02,-0.07,0.01
7:46:31 PM,-0.66,8.46,4.53,0.02,0.03,0.01
7:46:31 PM,-0.61,8.37,4.41,0.03,-0.03,0.01
7:46:31 PM,-0.58,8.43,4.45,0.02,0.03,0.01
7:46:32 PM,-0.70,8.42,4.35,-0.01,-0.01,0.01
7:46:32 PM,-0.20,8.43,4.22,0.00,-0.05,0.01
7:46:32 PM,-0.51,8.34,4.37,-0.02,-0.03,0.01
7:46:32 PM,-0.46,8.28,4.57,-0.00,0.01,0.01
7:46:32 PM,-0.51,8.39,4.79,0.05,0.02,0.01
7:46:32 PM,-0.58,8.28,4.59,0.01,0.03,0.01
7:46:32 PM,-0.73,8.33,4.36,0.00,0.02,0.01
7:46:32 PM,-0.52,8.39,4.39,0.02,0.02,0.01
7:46:32 PM,-0.55,8.42,4.38,0.01,-0.06,0.01
7:46:33 PM,-0.44,8.43,4.40,0.01,-0.01,0.01
7:46:33 PM,-0.31,8.23,4.65,-0.01,-0.07,0.01
7:46:33 PM,-0.17,8.23,4.41,0.01,-0.01,0.01
7:46:33 PM,-0.70,8.10,4.57,0.02,-0.01,0.01
7:46:33 PM,-0.32,8.26,4.49,0.02,0.00,0.01
7:46:33 PM,-0.92,8.30,4.54,0.05,0.06,0.01
7:46:33 PM,-0.59,8.46,4.60,0.03,-0.02,0.01
7:46:33 PM,-0.70,8.35,4.58,-0.03,0.01,0.01
7:46:33 PM,-0.55,8.34,4.24,-0.00,-0.02,0.01
7:46:33 PM,-0.48,8.37,4.34,0.02,-0.03,0.01
7:46:34 PM,-0.66,8.40,4.43,0.02,-0.12,0.01
7:46:34 PM,-0.51,8.43,4.55,0.01,-0.06,0.01
7:46:34 PM,-0.77,8.33,4.48,0.01,0.01,0.01
7:46:34 PM,-0.22,8.39,4.29,-0.05,-0.04,0.01
7:46:34 PM,-0.67,8.12,4.34,-0.00,-0.01,0.01
7:46:34 PM,-0.14,8.26,4.57,0.05,-0.04,0.01
7:46:34 PM,-0.62,8.20,4.83,0.04,-0.04,0.01
7:46:34 PM,-0.50,8.37,4.37,0.02,-0.04,0.01
7:46:34 PM,-0.69,8.38,4.50,0.05,-0.01,0.01
7:46:35 PM,-0.51,8.36,4.55,-0.01,0.06,0.01
7:46:35 PM,-0.71,8.34,4.43,0.01,0.08,0.01
7:46:35 PM,-0.71,8.35,4.49,0.00,-0.03,0.01
7:46:35 PM,-0.69,8.34,4.51,0.01,0.04,0.01
7:46:35 PM,-0.62,8.34,4.62,0.01,-0.10,0.01
7:46:35 PM,-0.36,8.32,4.44,0.00,-0.07,0.01
7:46:35 PM,-0.29,8.28,4.31,-0.00,-0.07,0.01
7:46:35 PM,-0.30,8.23,4.37,0.02,-0.05,0.01
7:46:35 PM,-0.55,8.33,4.58,0.05,-0.02,0.01
7:46:35 PM,-0.73,8.38,4.41,0.03,-0.02,0.01
7:46:36 PM,-0.58,8.39,4.37,0.01,-0.02,0.01
7:46:36 PM,-0.38,8.28,4.58,-0.03,-0.01,0.01
7:46:36 PM,-0.49,8.36,4.48,0.05,0.02,0.01
7:46:36 PM,-0.58,8.46,4.54,0.05,0.04,0.01
7:46:36 PM,-0.73,8.45,4.36,0.05,-0.06,0.01
7:46:36 PM,-0.75,8.44,4.44,0.04,-0.01,0.01
7:46:36 PM,-0.47,8.36,4.48,-0.03,-0.01,0.01
7:46:36 PM,-0.47,8.24,4.49,-0.05,-0.00,0.01
7:46:36 PM,-0.28,8.34,4.51,0.06,-0.02,0.01
7:46:37 PM,-0.75,8.44,4.37,0.05,0.03,0.01
7:46:37 PM,-0.81,8.51,4.36,0.03,-0.00,0.01
7:46:37 PM,-0.98,8.56,4.41,0.07,-0.02,0.01
7:46:37 PM,-0.61,8.48,4.54,0.01,-0.02,0.01
7:46:37 PM,-0.83,8.33,4.43,0.03,0.01,0.01
7:46:37 PM,-0.58,8.49,4.41,0.05,0.03,0.01
7:46:37 PM,-0.89,8.52,4.37,0.03,0.04,0.01
7:46:37 PM,-0.50,8.51,4.49,0.03,-0.07,0.01
7:46:37 PM,-0.60,8.25,4.48,-0.03,-0.10,0.01
7:46:37 PM,-0.62,8.27,4.58,0.03,0.00,0.01
7:46:38 PM,-0.58,8.14,4.74,-0.03,-0.03,0.01
7:46:38 PM,-0.47,8.20,4.50,-0.02,0.06,0.01
7:46:38 PM,-0.67,8.29,4.55,0.02,0.04,0.01
7:46:38 PM,-0.61,8.42,4.48,0.01,0.06,0.01
7:46:38 PM,-0.62,8.31,4.41,-0.03,-0.04,0.01
7:46:38 PM,-0.48,8.37,4.53,0.03,0.02,0.01
7:46:38 PM,-0.41,8.26,4.50,-0.02,-0.04,0.01
7:46:38 PM,-0.51,8.25,4.35,-0.01,-0.03,0.01
7:46:38 PM,-0.50,8.18,4.69,0.01,0.03,0.01
7:46:39 PM,-0.64,8.44,4.47,0.07,0.06,0.01
