Timestamp,Accel X,Accel Y,Accel Z,Gyro X,Gyro Y,Gyro Z
7:52:54 PM,-10.37,0.85,0.08,0.03,-0.02,0.01
7:52:55 PM,-10.26,0.83,0.10,0.05,-0.04,0.01
7:52:55 PM,-10.38,0.88,0.07,0.02,-0.00,0.01
7:52:55 PM,-9.90,1.03,0.26,-0.04,0.04,0.01
7:52:55 PM,-10.41,0.85,0.06,0.02,0.00,0.01
7:52:55 PM,-10.36,0.86,0.07,-0.00,0.00,0.01
7:52:55 PM,-10.35,0.85,0.04,0.02,-0.01,0.01
7:52:55 PM,-10.34,0.88,-0.02,-0.00,0.01,0.01
7:52:55 PM,-10.35,0.86,0.06,0.00,-0.01,0.01
7:52:55 PM,-10.37,0.91,0.05,0.00,-0.02,0.01
7:52:56 PM,-10.35,0.85,0.09,-0.00,-0.02,0.01
7:52:56 PM,-10.37,0.87,0.07,0.01,-0.05,0.01
7:52:56 PM,-10.40,0.87,0.09,0.03,-0.01,0.01
7:52:56 PM,-10.33,0.88,0.11,0.04,0.00,0.01
7:52:56 PM,-10.39,0.83,-0.02,-0.03,-0.01,0.01
7:52:56 PM,-10.36,0.88,0.08,0.00,-0.02,0.01
7:52:56 PM,-10.35,0.85,0.08,-0.01,-0.02,0.01
7:52:56 PM,-10.35,0.89,0.13,0.02,-0.01,0.01
7:52:56 PM,-10.36,0.86,0.14,0.01,-0.02,0.01
7:52:56 PM,-10.34,0.86,0.05,0.02,-0.01,0.01
7:52:57 PM,-10.04,0.79,0.09,-0.01,-0.01,0.01
7:52:57 PM,-10.41,0.84,0.04,0.02,-0.01,0.01
7:52:57 PM,-10.43,0.92,0.08,0.03,-0.03,0.01
7:52:57 PM,-10.40,0.89,0.02,0.02,-0.01,0.01
7:52:57 PM,-10.40,0.82,0.01,0.03,-0.02,0.01
7:52:57 PM,-10.37,0.88,0.05,-0.01,-0.01,0.01
7:52:57 PM,-10.39,0.89,-0.03,0.02,-0.01,0.01
7:52:57 PM,-10.40,0.86,-0.00,-0.00,-0.03,0.01
7:52:57 PM,-10.38,0.91,0.05,0.01,0.00,0.01
7:52:58 PM,-10.36,0.86,-0.01,-0.01,-0.01,0.01
7:52:58 PM,-10.31,0.90,0.04,0.03,-0.03,0.01
7:52:58 PM,-10.34,0.89,0.04,-0.00,-0.01,0.01
7:52:58 PM,-10.31,0.93,0.04,0.01,-0.01,0.01
7:52:58 PM,-10.34,1.07,-0.13,-0.02,-0.02,0.01
7:52:58 PM,-10.45,0.86,0.04,0.07,0.02,0.01
7:52:58 PM,-10.29,0.88,0.14,-0.05,-0.01,0.01
7:52:58 PM,-10.54,0.85,0.06,-0.04,0.02,0.01
7:52:58 PM,-10.38,0.81,0.08,-0.01,-0.01,0.01
7:52:58 PM,-10.46,0.83,0.00,0.03,-0.03,0.01
7:52:59 PM,-10.40,0.87,0.02,0.05,-0.02,0.01
7:52:59 PM,-10.35,0.79,0.14,-0.01,0.00,0.01
7:52:59 PM,-10.37,0.87,0.00,0.01,0.00,0.01
7:52:59 PM,-10.42,0.89,-0.06,0.00,0.01,0.01
7:52:59 PM,-10.34,0.83,0.04,0.01,-0.00,0.01
7:52:59 PM,-10.47,0.87,0.09,0.06,-0.07,0.01
7:52:59 PM,-10.37,0.84,-0.04,0.04,-0.03,0.01
7:52:59 PM,-10.40,0.85,-0.06,0.03,-0.02,0.01
7:52:59 PM,-10.36,0.86,0.05,0.04,-0.04,0.01
7:53:00 PM,-10.45,0.86,0.00,0.02,-0.03,0.01
7:53:00 PM,-10.36,0.86,0.04,0.01,-0.00,0.01
7:53:00 PM,-10.36,0.85,0.08,-0.00,-0.02,0.01
7:53:00 PM,-10.35,0.90,0.09,-0.01,-0.00,0.01
7:53:00 PM,-10.36,0.86,0.02,0.01,-0.01,0.01
7:53:00 PM,-10.31,0.88,0.11,0.02,0.01,0.01
7:53:00 PM,-10.40,0.87,0.10,0.02,-0.04,0.01
7:53:00 PM,-10.61,0.86,0.05,0.02,-0.02,0.01
7:53:00 PM,-10.31,0.88,-0.06,0.03,-0.00,0.01
7:53:00 PM,-10.33,0.94,0.11,0.00,-0.00,0.01
7:53:01 PM,-10.33,0.90,0.02,0.02,-0.03,0.01
7:53:01 PM,-10.46,0.85,-0.03,0.01,-0.04,0.01
7:53:01 PM,-10.42,0.85,0.02,0.01,-0.03,0.01
7:53:01 PM,-10.49,0.83,-0.11,0.04,-0.03,0.01
7:53:01 PM,-10.44,0.83,0.01,-0.01,0.00,0.01
7:53:01 PM,-10.46,0.89,0.00,-0.02,-0.03,0.01
7:53:01 PM,-10.35,0.83,0.03,0.04,0.00,0.01
7:53:01 PM,-10.36,0.87,0.08,0.04,0.00,0.01
7:53:01 PM,-10.46,0.88,-0.09,0.03,-0.01,0.01
7:53:02 PM,-10.38,0.87,-0.02,0.02,-0.01,0.01
7:53:02 PM,-10.34,0.88,-0.00,0.02,-0.03,0.01
7:53:02 PM,-10.50,0.85,0.07,-0.00,-0.02,0.01
7:53:02 PM,-10.60,0.86,-0.05,-0.01,0.00,0.01
7:53:02 PM,-10.49,0.80,0.12,0.06,-0.03,0.01
7:53:02 PM,-10.38,0.84,-0.00,-0.00,-0.01,0.01
7:53:02 PM,-10.31,0.85,0.02,0.01,-0.01,0.01
7:53:02 PM,-10.39,0.85,0.00,0.01,-0.04,0.01
7:53:02 PM,-10.27,0.85,-0.05,0.01,-0.01,0.01
7:53:02 PM,-10.39,0.84,0.03,0.00,-0.02,0.01
7:53:03 PM,-10.43,0.85,0.09,0.02,-0.02,0.01
7:53:03 PM,-10.45,0.87,-0.02,0.04,-0.03,0.01
7:53:03 PM,-10.39,0.86,0.07,-0.01,0.01,0.01
7:53:03 PM,-10.37,0.86,0.01,0.01,-0.03,0.01
7:53:03 PM,-10.33,0.85,0.06,0.03,-0.03,0.01
7:53:03 PM,-10.38,0.83,0.05,0.04,-0.01,0.01
7:53:03 PM,-10.33,0.85,-0.03,0.00,-0.01,0.01
7:53:03 PM,-10.20,0.92,-0.09,0.00,-0.01,0.01
7:53:03 PM,-10.40,0.82,-0.13,-0.02,-0.06,0.01
7:53:04 PM,-10.38,0.78,0.05,0.04,-0.00,0.01
7:53:04 PM,-10.35,0.89,-0.02,0.01,-0.01,0.01
7:53:04 PM,-10.42,0.87,-0.02,0.05,-0.02,0.01
7:53:04 PM,-10.41,0.88,-0.02,-0.00,-0.01,0.01
7:53:04 PM,-10.33,0.85,-0.03,0.01,0.01,0.01
7:53:04 PM,-10.47,0.84,-0.06,0.01,0.01,0.01
7:53:04 PM,-10.45,0.89,-0.01,0.01,0.04,0.01
7:53:04 PM,-10.35,0.87,-0.17,0.06,-0.04,0.01
7:53:04 PM,-10.30,0.88,-0.13,0.03,-0.02,0.01
7:53:05 PM,-10.38,0.90,-0.07,0.07,-0.04,0.01
7:53:05 PM,-10.43,0.89,-0.12,0.02,-0.01,0.01
7:53:05 PM,-10.33,1.15,-0.07,0.23,-0.13,0.01
7:53:05 PM,-10.55,1.03,0.13,0.00,-0.04,0.01
7:53:05 PM,-10.31,1.05,-0.16,0.01,-0.03,0.01
7:53:05 PM,-10.36,1.00,-0.16,0.03,-0.03,0.01
7:53:05 PM,-10.38,1.04,-0.15,0.01,-0.01,0.01
7:53:05 PM,-10.37,1.05,-0.09,0.00,-0.01,0.01
7:53:05 PM,-10.34,0.97,-0.01,-0.00,-0.00,0.01
7:53:05 PM,-10.42,1.01,-0.12,0.00,-0.04,0.01
7:53:06 PM,-10.48,0.94,-0.10,-0.02,-0.01,0.01
7:53:06 PM,-10.48,1.03,-0.16,0.03,-0.04,0.01
7:53:06 PM,-10.58,0.93,0.00,-0.00,0.00,0.01
7:53:06 PM,-10.43,0.95,-0.16,-0.01,0.00,0.01
7:53:06 PM,-10.52,0.94,-0.17,0.03,-0.02,0.01
7:53:06 PM,-10.46,0.97,-0.10,0.01,-0.01,0.01
7:53:06 PM,-10.37,0.99,-0.14,0.00,-0.02,0.01
7:53:06 PM,-10.37,0.96,-0.11,0.01,-0.02,0.01
7:53:06 PM,-10.37,0.92,-0.09,-0.01,0.01,0.01
7:53:07 PM,-10.35,0.94,-0.13,-0.03,-0.03,0.01
7:53:07 PM,-10.35,0.97,0.01,0.00,0.03,0.01
7:53:07 PM,-10.37,0.95,-0.22,0.03,-0.02,0.01
7:53:07 PM,-10.71,1.01,-0.18,-0.06,0.08,0.01
7:53:07 PM,-10.28,0.88,-0.03,-0.04,0.05,0.01
7:53:07 PM,-10.31,0.91,-0.24,0.05,-0.05,0.01
7:53:07 PM,-10.46,0.95,-0.32,0.03,-0.04,0.01
7:53:07 PM,-10.34,0.97,-0.50,-0.01,0.02,0.01
7:53:07 PM,-10.28,0.86,-0.17,0.01,0.02,0.01
7:53:07 PM,-10.86,0.90,-0.12,0.15,-0.22,0.01
7:53:08 PM,-10.07,1.03,0.04,0.09,-0.00,0.01
7:53:08 PM,-10.31,1.00,-0.21,0.02,-0.05,0.01
7:53:08 PM,-10.20,1.02,-0.24,-0.02,-0.00,0.01
7:53:08 PM,-10.50,0.91,-0.08,0.02,-0.01,0.01
7:53:08 PM,-10.35,1.04,-0.14,-0.02,0.01,0.01
7:53:08 PM,-10.31,1.02,-0.21,-0.01,-0.03,0.01
7:53:08 PM,-10.35,0.97,-0.22,-0.01,0.00,0.01
7:53:08 PM,-10.33,1.04,-0.18,-0.02,-0.00,0.01
7:53:08 PM,-10.41,1.00,-0.24,-0.01,0.01,0.01
7:53:09 PM,-10.38,0.98,-0.14,-0.01,0.01,0.01
7:53:09 PM,-10.33,0.99,-0.15,0.02,-0.01,0.01
7:53:09 PM,-10.42,1.06,-0.29,0.01,-0.02,0.01
7:53:09 PM,-10.43,1.04,-0.26,0.04,-0.02,0.01
7:53:09 PM,-10.37,0.93,-0.17,0.01,-0.02,0.01
7:53:09 PM,-10.37,1.02,-0.25,-0.01,-0.01,0.01
7:53:09 PM,-10.35,1.02,-0.23,-0.00,-0.00,0.01
7:53:09 PM,-10.30,0.99,-0.26,-0.04,0.02,0.01
7:53:09 PM,-10.32,0.98,-0.26,-0.01,-0.01,0.01
7:53:09 PM,-10.46,0.99,-0.21,0.03,-0.02,0.01
7:53:10 PM,-10.32,0.98,-0.15,-0.01,-0.02,0.01
7:53:10 PM,-10.36,1.00,-0.21,0.02,-0.02,0.01
7:53:10 PM,-10.45,0.95,-0.17,-0.03,-0.02,0.01
7:53:10 PM,-10.26,0.96,-0.21,-0.02,0.02,0.01
7:53:10 PM,-10.33,0.97,-0.29,-0.04,0.01,0.01
7:53:10 PM,-10.50,0.97,-0.23,0.02,-0.05,0.01
7:53:10 PM,-10.51,0.95,-0.01,0.01,0.02,0.01
7:53:10 PM,-10.41,0.98,-0.22,-0.02,-0.00,0.01
7:53:10 PM,-10.10,0.98,-0.24,0.02,-0.02,0.01
7:53:11 PM,-10.38,0.96,-0.42,-0.01,-0.04,0.01
7:53:11 PM,-10.42,0.97,-0.35,0.03,-0.04,0.01
7:53:11 PM,-10.50,0.94,-0.15,-0.02,0.02,0.01
7:53:11 PM,-10.53,0.99,-0.21,0.01,-0.01,0.01
7:53:11 PM,-10.45,0.95,-0.16,-0.03,0.01,0.01
7:53:11 PM,-10.33,0.95,-0.22,-0.00,-0.02,0.01
7:53:11 PM,-10.35,0.96,-0.24,-0.03,-0.00,0.01
7:53:11 PM,-10.41,0.98,-0.26,0.03,-0.02,0.01
7:53:11 PM,-10.53,0.93,-0.03,0.02,-0.02,0.01
7:53:11 PM,-10.37,0.94,-0.23,0.01,-0.01,0.01
7:53:12 PM,-10.32,0.96,-0.21,0.02,-0.03,0.01
7:53:12 PM,-10.39,0.90,-0.18,-0.02,-0.01,0.01
7:53:12 PM,-10.43,0.94,-0.25,0.00,-0.01,0.01
7:53:12 PM,-10.41,0.91,-0.34,0.02,-0.02,0.01
7:53:12 PM,-10.41,0.84,-0.23,0.02,-0.01,0.01
7:53:12 PM,-10.33,0.87,-0.34,0.00,-0.05,0.01
7:53:12 PM,-10.43,0.85,-0.22,0.07,-0.04,0.01
7:53:12 PM,-10.38,0.92,-0.36,-0.01,-0.02,0.01
7:53:12 PM,-10.32,0.88,-0.34,0.02,-0.02,0.01
7:53:13 PM,-10.33,0.95,-0.43,0.01,-0.03,0.01
7:53:13 PM,-10.47,0.88,-0.30,0.00,-0.00,0.01
7:53:13 PM,-10.42,0.96,-0.26,0.00,-0.01,0.01
7:53:13 PM,-10.52,0.82,-0.24,0.04,-0.02,0.01
7:53:13 PM,-10.38,0.80,-0.26,-0.01,-0.01,0.01
7:53:13 PM,-10.35,0.94,-0.48,-0.04,0.01,0.01
7:53:13 PM,-11.00,0.79,-0.02,0.04,0.38,0.01
7:53:13 PM,-10.45,0.77,-0.23,0.00,0.01,0.01
7:53:13 PM,-10.34,0.85,-0.43,-0.03,0.01,0.01
7:53:13 PM,-10.49,0.77,-0.19,-0.05,0.03,0.01
7:53:14 PM,-10.49,0.79,-0.28,-0.01,-0.03,0.01
7:53:14 PM,-10.65,0.73,-0.24,0.03,0.00,0.01
7:53:14 PM,-10.75,0.77,-0.40,0.09,0.02,0.01
7:53:14 PM,-10.66,0.81,-0.03,0.07,-0.09,0.01
7:53:14 PM,-10.50,0.83,-0.29,-0.02,0.09,0.01
7:53:14 PM,-10.21,0.85,-0.34,0.02,-0.02,0.01
7:53:14 PM,-10.36,0.83,-0.27,0.02,-0.03,0.01
7:53:14 PM,-10.44,0.81,-0.37,-0.01,-0.03,0.01
7:53:14 PM,-10.46,0.82,-0.44,-0.01,0.00,0.01
7:53:15 PM,-10.40,0.86,-0.43,-0.03,-0.02,0.01
7:53:15 PM,-10.29,0.85,-0.40,-0.06,0.02,0.01
7:53:15 PM,-10.45,0.80,-0.43,0.01,-0.02,0.01
7:53:15 PM,-10.38,0.83,-0.39,0.03,-0.02,0.01
7:53:15 PM,-10.52,0.78,-0.24,0.01,-0.02,0.01
7:53:15 PM,-10.54,0.79,-0.23,0.01,-0.01,0.01
7:53:15 PM,-10.54,0.77,-0.24,-0.00,-0.02,0.01
7:53:15 PM,-10.45,0.81,-0.22,0.03,-0.03,0.01
7:53:15 PM,-10.33,0.79,-0.27,0.05,-0.09,0.01
7:53:16 PM,-10.52,0.79,-0.22,0.06,-0.02,0.01
7:53:16 PM,-10.41,0.77,-0.29,-0.07,0.01,0.01
7:53:16 PM,-10.37,0.80,-0.45,0.02,-0.02,0.01
7:53:16 PM,-10.39,0.82,-0.48,-0.03,-0.01,0.01
7:53:16 PM,-10.30,0.79,-0.39,-0.01,-0.00,0.01
7:53:16 PM,-10.46,0.84,-0.41,0.00,-0.01,0.01
7:53:16 PM,-10.54,0.78,-0.27,0.05,-0.02,0.01
7:53:16 PM,-10.46,0.78,-0.17,0.04,-0.02,0.01
7:53:16 PM,-10.56,0.72,-0.11,0.05,-0.04,0.01
7:53:16 PM,-10.47,0.83,-0.33,0.01,-0.02,0.01
7:53:17 PM,-10.58,0.74,-0.16,0.00,-0.04,0.01
7:53:17 PM,-10.50,0.84,-0.39,0.06,-0.04,0.01
7:53:17 PM,-10.40,0.77,-0.30,-0.06,0.02,0.01
7:53:17 PM,-10.42,0.80,-0.46,0.00,-0.03,0.01
7:53:17 PM,-10.30,0.88,-0.49,0.01,-0.01,0.01
7:53:17 PM,-10.33,0.81,-0.35,-0.04,0.03,0.01
7:53:17 PM,-10.24,0.77,-0.30,0.01,-0.03,0.01
7:53:17 PM,-10.52,0.76,-0.28,0.01,-0.02,0.01
7:53:17 PM,-10.50,0.85,-0.39,0.08,-0.08,0.01
7:53:18 PM,-10.30,0.75,-0.22,0.02,0.03,0.01
7:53:18 PM,-10.50,0.79,-0.28,0.01,-0.02,0.01
7:53:18 PM,-10.50,0.83,-0.50,0.00,0.02,0.01
7:53:18 PM,-10.32,0.79,-0.38,0.04,-0.01,0.01
7:53:18 PM,-10.53,0.73,-0.28,0.05,0.00,0.01
7:53:18 PM,-10.31,0.89,-0.42,0.02,-0.05,0.01
7:53:18 PM,-10.39,0.81,-0.18,-0.05,0.05,0.01
7:53:18 PM,-10.38,0.82,-0.18,-0.04,0.01,0.01
7:53:18 PM,-10.38,0.85,-0.37,-0.03,-0.03,0.01
7:53:18 PM,-10.38,0.85,-0.25,-0.01,-0.02,0.01
7:53:19 PM,-10.35,0.86,-0.62,0.02,0.06,0.01
7:53:19 PM,-10.45,0.82,-0.32,-0.01,-0.04,0.01
7:53:19 PM,-10.41,0.82,-0.36,0.00,-0.03,0.01
7:53:19 PM,-10.44,0.80,-0.13,-0.03,-0.05,0.01
7:53:19 PM,-10.38,0.83,-0.11,0.00,0.00,0.01
7:53:19 PM,-10.37,0.81,-0.25,-0.03,-0.03,0.01
7:53:19 PM,-10.47,0.87,-0.49,0.07,-0.03,0.01
7:53:19 PM,-10.46,0.90,-0.51,-0.00,0.03,0.01
7:53:19 PM,-10.45,0.77,-0.36,0.03,-0.01,0.01
7:53:20 PM,-10.57,0.80,-0.28,0.01,0.06,0.01
7:53:20 PM,-10.49,0.81,-0.21,-0.00,0.02,0.01
7:53:20 PM,-10.31,0.80,-0.27,0.01,-0.03,0.01
7:53:20 PM,-10.60,0.74,-0.19,0.04,-0.01,0.01
7:53:20 PM,-10.30,0.80,-0.15,-0.02,-0.02,0.01
7:53:20 PM,-10.47,0.76,-0.15,-0.02,-0.06,0.01
7:53:20 PM,-10.46,0.89,-0.28,-0.04,0.03,0.01
7:53:20 PM,-10.30,0.78,-0.16,0.03,-0.08,0.01
7:53:20 PM,-10.50,0.85,-0.35,0.02,-0.07,0.01
7:53:20 PM,-10.40,0.84,-0.13,0.05,-0.02,0.01
7:53:21 PM,-10.48,0.80,-0.25,0.01,-0.06,0.01
7:53:21 PM,-11.33,0.72,-0.56,0.00,-0.12,0.01
7:53:21 PM,-10.12,0.85,-0.20,0.13,-0.10,0.01
7:53:21 PM,-10.11,0.87,-0.21,0.12,-0.07,0.01
7:53:21 PM,-10.32,0.84,-0.34,0.02,-0.02,0.01
7:53:21 PM,-10.50,0.78,-0.10,0.06,-0.04,0.01
7:53:21 PM,-10.65,0.89,-0.24,-0.02,0.25,0.01
7:53:21 PM,-10.04,1.01,-0.27,0.01,-0.00,0.01
7:53:21 PM,-10.51,0.91,-0.10,0.03,-0.06,0.01
7:53:22 PM,-10.30,0.96,-0.21,0.09,-0.05,0.01
7:53:22 PM,-10.36,0.90,-0.08,0.02,0.01,0.01
7:53:22 PM,-10.37,0.96,-0.08,0.04,-0.03,0.01
7:53:22 PM,-10.41,0.97,-0.18,-0.02,0.08,0.01
7:53:22 PM,-10.30,0.97,-0.13,-0.01,0.00,0.01
7:53:22 PM,-10.56,0.94,-0.25,0.02,-0.06,0.01
7:53:22 PM,-10.40,1.00,-0.22,-0.01,-0.02,0.01
7:53:22 PM,-10.46,0.87,-0.18,-0.04,0.01,0.01
7:53:22 PM,-10.36,0.92,-0.39,-0.02,0.04,0.01
7:53:22 PM,-10.67,1.04,-0.54,-0.01,0.03,0.01
7:53:23 PM,-10.69,0.85,-0.09,-0.00,0.05,0.01
7:53:23 PM,-10.54,0.90,-0.28,0.01,-0.02,0.01
7:53:23 PM,-10.61,0.90,-0.17,0.00,-0.01,0.01
7:53:23 PM,-10.39,0.88,-0.21,-0.01,-0.08,0.01
7:53:23 PM,-10.54,0.91,-0.49,0.00,-0.04,0.01
7:53:23 PM,-10.43,0.86,-0.26,-0.01,-0.03,0.01
7:53:23 PM,-10.45,0.90,-0.19,-0.02,0.07,0.01
7:53:23 PM,-10.56,0.85,-0.42,-0.03,0.05,0.01
7:53:23 PM,-10.64,0.88,-0.53,-0.02,-0.02,0.01
7:53:24 PM,-10.30,0.94,-0.40,-0.03,-0.02,0.01
7:53:24 PM,-10.43,0.90,-0.30,-0.03,-0.05,0.01
7:53:24 PM,-10.29,0.94,-0.10,0.02,-0.03,0.01
7:53:24 PM,-10.39,0.81,-0.01,0.04,-0.08,0.01
7:53:24 PM,-10.37,0.88,-0.08,0.00,-0.02,0.01
7:53:24 PM,-10.65,0.96,-0.21,-0.01,0.03,0.01
7:53:24 PM,-10.49,0.82,0.09,0.00,-0.01,0.01
7:53:24 PM,-10.31,0.90,-0.02,0.02,-0.02,0.01
7:53:24 PM,-10.21,0.92,-0.15,0.00,-0.07,0.01
7:53:24 PM,-10.54,0.92,-0.13,0.03,-0.02,0.01
7:53:25 PM,-10.49,0.85,-0.06,-0.03,0.02,0.01
7:53:25 PM,-10.29,0.92,-0.23,-0.01,-0.06,0.01
7:53:25 PM,-10.47,0.90,-0.23,0.02,0.00,0.01
7:53:25 PM,-10.51,0.85,-0.14,-0.03,-0.01,0.01
7:53:25 PM,-10.33,0.85,-0.03,-0.01,-0.04,0.01
7:53:25 PM,-10.28,0.88,-0.05,-0.00,-0.01,0.01
7:53:25 PM,-10.38,0.89,-0.15,0.02,-0.05,0.01
7:53:25 PM,-10.24,0.91,-0.06,0.04,-0.06,0.01
7:53:25 PM,-10.46,0.83,-0.06,0.02,0.01,0.01
7:53:26 PM,-10.56,0.83,-0.03,0.06,-0.03,0.01
7:53:26 PM,-10.37,0.90,0.02,0.05,-0.10,0.01
7:53:26 PM,-10.54,0.85,-0.03,0.02,-0.06,0.01
7:53:26 PM,-10.36,0.89,0.08,-0.02,-0.04,0.01
7:53:26 PM,-10.33,0.90,0.10,0.02,-0.04,0.01
7:53:26 PM,-10.32,0.91,0.11,0.02,-0.03,0.01
7:53:26 PM,-10.53,0.93,-0.05,0.00,0.01,0.01
7:53:26 PM,-10.40,0.89,0.14,-0.04,0.03,0.01
7:53:26 PM,-10.26,0.97,0.12,-0.01,-0.03,0.01
7:53:26 PM,-10.32,0.97,0.01,-0.01,-0.02,0.01
7:53:27 PM,-10.46,0.93,-0.02,0.01,-0.02,0.01
7:53:27 PM,-10.47,0.93,-0.04,-0.00,-0.01,0.01
7:53:27 PM,-10.41,0.94,-0.05,0.00,-0.02,0.01
7:53:27 PM,-10.42,0.92,0.01,0.00,-0.00,0.01
7:53:27 PM,-10.37,0.96,-0.29,-0.03,-0.02,0.01
7:53:27 PM,-10.34,0.91,0.01,-0.01,-0.06,0.01
7:53:27 PM,-10.46,0.91,0.05,-0.00,0.03,0.01
7:53:27 PM,-10.45,0.94,-0.07,-0.03,-0.02,0.01
7:53:27 PM,-10.42,0.94,0.06,-0.02,-0.03,0.01
7:53:28 PM,-10.49,0.92,-0.01,-0.02,0.02,0.01
7:53:28 PM,-10.44,0.96,-0.11,-0.00,-0.04,0.01
7:53:28 PM,-10.51,0.90,0.06,0.01,-0.02,0.01
7:53:28 PM,-10.35,0.94,-0.12,0.03,0.00,0.01
7:53:28 PM,-10.90,0.85,-0.13,0.08,0.08,0.01
7:53:28 PM,-10.35,0.91,-0.22,0.09,-0.08,0.01
7:53:28 PM,-10.44,0.88,-0.06,0.01,-0.05,0.01
7:53:28 PM,-10.49,0.86,-0.05,-0.03,0.03,0.01
7:53:28 PM,-9.82,1.18,-0.65,0.06,-0.32,0.01
7:53:29 PM,-10.46,1.02,-0.22,-0.01,-0.05,0.01
7:53:29 PM,-10.35,0.96,-0.14,-0.02,0.03,0.01
7:53:29 PM,-10.20,0.96,0.24,0.04,-0.06,0.01
7:53:29 PM,-10.58,0.91,0.21,0.02,-0.00,0.01
7:53:29 PM,-9.57,0.55,0.50,-0.24,0.21,0.01
7:53:29 PM,-10.46,0.92,-0.16,0.07,-0.12,0.01
7:53:29 PM,-10.35,0.97,-0.39,0.03,-0.03,0.01
7:53:29 PM,-10.49,0.89,-0.01,-0.03,0.04,0.01
7:53:29 PM,-10.52,0.89,0.02,0.01,-0.04,0.01
7:53:29 PM,-10.49,0.94,-0.00,-0.01,-0.02,0.01
7:53:30 PM,-10.47,0.88,0.11,-0.01,0.03,0.01
7:53:30 PM,-10.44,0.85,0.03,-0.03,0.03,0.01
7:53:30 PM,-10.53,0.88,0.04,0.01,-0.03,0.01
7:53:30 PM,-10.39,0.86,0.10,-0.00,-0.09,0.01
7:53:30 PM,-10.23,0.87,0.28,-0.00,-0.01,0.01
7:53:30 PM,-10.40,0.87,0.06,-0.03,0.01,0.01
7:53:30 PM,-10.30,0.91,-0.00,-0.05,0.01,0.01
7:53:30 PM,-9.75,0.75,0.10,0.03,-0.30,0.01
7:53:30 PM,-10.89,0.74,-0.28,0.03,-0.03,0.01
7:53:31 PM,-10.26,0.81,-0.33,0.01,-0.03,0.01
7:53:31 PM,-10.09,0.87,-0.41,-0.13,-0.02,0.01
7:53:31 PM,-10.59,0.73,-0.33,0.07,0.10,0.01
7:53:31 PM,-9.94,0.81,-0.34,0.01,-0.03,0.01
7:53:31 PM,-10.43,0.65,-0.09,-0.00,-0.03,0.01
7:53:31 PM,-12.08,0.39,0.95,1.07,-0.28,0.02
7:53:31 PM,-10.26,0.51,1.24,-0.36,0.07,0.01
7:53:31 PM,-10.81,0.53,-0.29,-0.88,0.28,0.01
7:53:31 PM,-10.16,0.70,-0.70,0.11,-0.21,0.01
7:53:31 PM,-10.08,0.71,-0.83,0.01,-0.06,0.01
7:53:32 PM,-9.89,0.64,-0.63,0.09,-0.05,0.01
7:53:32 PM,-10.41,0.86,-0.18,0.03,0.03,0.01
7:53:32 PM,-10.44,0.52,0.18,-0.11,-0.00,0.01
7:53:32 PM,-10.76,0.50,0.17,0.13,-0.14,0.01
7:53:32 PM,-10.65,0.50,0.45,-0.01,0.04,0.01
7:53:32 PM,-10.12,0.76,0.14,-0.07,-0.01,0.01
7:53:32 PM,-10.57,0.64,0.04,0.00,0.00,0.01
7:53:32 PM,-10.32,0.75,-0.28,-0.01,0.06,0.01
7:53:32 PM,-10.32,0.66,-0.40,0.06,0.04,0.01
7:53:33 PM,-10.46,0.70,-0.45,0.02,-0.00,0.01
7:53:33 PM,-10.55,0.72,-0.22,0.02,-0.02,0.01
7:53:33 PM,-10.46,0.73,-0.02,0.02,0.01,0.01
7:53:33 PM,-10.57,0.64,0.26,0.09,-0.08,0.01
7:53:33 PM,-10.53,0.78,0.16,0.01,-0.03,0.01
7:53:33 PM,-10.72,0.80,0.05,0.16,-0.01,0.01
7:53:33 PM,-10.54,0.69,0.06,0.02,-0.01,0.01
7:53:33 PM,-10.39,0.81,-0.11,0.06,-0.03,0.01
7:53:33 PM,-10.44,0.70,-0.02,0.04,-0.00,0.01
7:53:33 PM,-10.39,0.94,-0.21,0.02,0.03,0.01
7:53:34 PM,-10.35,0.80,-0.28,-0.03,-0.00,0.01
7:53:34 PM,-10.60,0.74,-0.18,0.01,0.03,0.01
7:53:34 PM,-10.26,0.83,-0.18,-0.07,-0.01,0.01
7:53:34 PM,-10.67,0.77,-0.23,-0.03,0.05,0.01
7:53:34 PM,-10.43,0.73,-0.20,0.02,-0.08,0.01
7:53:34 PM,-10.30,0.77,-0.08,0.03,-0.02,0.01
7:53:34 PM,-10.42,0.79,-0.29,0.01,-0.00,0.01
7:53:34 PM,-10.42,0.81,-0.25,-0.02,-0.05,0.01
7:53:34 PM,-10.08,0.91,-0.51,-0.03,0.04,0.01
7:53:35 PM,-10.68,0.80,-0.81,-0.03,0.08,0.01
7:53:35 PM,-10.43,0.81,-0.76,-0.01,0.15,0.01
7:53:35 PM,-10.02,0.74,-0.40,0.08,0.01,0.01
7:53:35 PM,-10.21,0.72,0.13,0.07,-0.17,0.01
7:53:35 PM,-10.50,0.67,0.32,0.06,-0.09,0.01
7:53:35 PM,-10.29,0.73,0.15,0.03,-0.08,0.01
7:53:35 PM,-10.29,0.79,-0.23,0.07,-0.04,0.01
7:53:35 PM,-10.11,0.77,-0.08,0.01,-0.07,0.01
7:53:35 PM,-10.56,0.77,-0.12,0.04,-0.04,0.01
7:53:35 PM,-10.21,0.77,0.09,-0.01,-0.00,0.01
7:53:36 PM,-10.51,0.78,-0.33,-0.02,0.03,0.01
7:53:36 PM,-10.39,0.77,-0.05,0.03,0.01,0.01
7:53:36 PM,-10.30,0.77,-0.44,0.01,0.01,0.01
7:53:36 PM,-10.52,0.79,-0.25,-0.04,-0.04,0.01
7:53:36 PM,-10.48,0.76,-0.21,-0.10,-0.00,0.01
7:53:36 PM,-10.44,0.82,-0.52,-0.01,0.00,0.01
7:53:36 PM,-10.25,0.73,-0.25,-0.02,-0.03,0.01
7:53:36 PM,-10.60,0.73,-0.20,0.01,-0.04,0.01
7:53:36 PM,-10.46,0.77,-0.24,0.00,-0.02,0.01
7:53:37 PM,-10.43,0.79,-0.28,0.00,0.07,0.01
7:53:37 PM,-10.50,0.77,-0.16,0.05,-0.04,0.01
7:53:37 PM,-10.53,0.78,-0.42,0.01,0.05,0.01
7:53:37 PM,-10.35,0.84,-0.70,0.01,0.01,0.01
7:53:37 PM,-10.37,0.79,-0.61,-0.03,0.05,0.01
7:53:37 PM,-10.46,0.73,-0.33,0.02,-0.03,0.01
7:53:37 PM,-10.68,0.84,-0.79,-0.05,0.01,0.01
7:53:37 PM,-10.34,0.86,-0.79,0.02,-0.09,0.01
7:53:37 PM,-10.43,0.73,-0.37,-0.01,0.03,0.01
7:53:37 PM,-10.46,0.69,-0.30,-0.02,-0.04,0.01
7:53:38 PM,-10.27,0.79,-0.27,0.02,0.08,0.01
7:53:38 PM,-10.45,0.66,-0.34,0.04,-0.08,0.01
7:53:38 PM,-10.46,0.64,-0.29,0.03,-0.04,0.01
7:53:38 PM,-10.17,0.82,-0.35,0.03,-0.05,0.01
7:53:38 PM,-10.30,0.69,-0.35,0.11,-0.07,0.01
7:53:38 PM,-10.35,0.66,0.08,0.08,-0.01,0.01
7:53:38 PM,-10.31,0.58,0.42,0.04,0.04,0.01
7:53:38 PM,-10.30,0.69,-0.15,0.04,-0.01,0.01
7:53:38 PM,-10.53,0.63,0.09,0.10,0.03,0.01
7:53:39 PM,-10.15,0.74,-0.05,-0.01,-0.01,0.01
7:53:39 PM,-10.42,0.69,-0.32,0.00,0.06,0.01
7:53:39 PM,-10.55,0.74,-0.34,0.01,-0.01,0.01
7:53:39 PM,-10.46,0.74,-0.15,-0.01,0.05,0.01
7:53:39 PM,-10.60,0.52,-0.17,-0.06,0.11,0.01
7:53:39 PM,-9.91,0.75,-0.26,-0.01,-0.08,0.01
7:53:39 PM,-10.53,0.65,-0.16,-0.03,-0.02,0.01
7:53:39 PM,-10.31,0.67,-0.02,0.00,-0.04,0.01
7:53:39 PM,-10.46,0.67,-0.12,0.02,0.02,0.01
7:53:40 PM,-10.32,0.67,-0.12,-0.02,-0.03,0.01
7:53:40 PM,-10.39,0.71,-0.26,0.01,-0.05,0.01
7:53:40 PM,-10.50,0.69,-0.34,-0.01,-0.07,0.01
7:53:40 PM,-10.43,0.68,-0.19,-0.02,-0.02,0.01
7:53:40 PM,-10.21,0.70,-0.04,0.01,-0.07,0.01
7:53:40 PM,-10.42,0.68,-0.09,-0.00,0.05,0.01
7:53:40 PM,-10.35,0.66,-0.06,-0.02,-0.04,0.01
7:53:40 PM,-10.34,0.66,-0.02,-0.01,-0.01,0.01
7:53:40 PM,-10.70,0.68,-0.30,-0.00,0.02,0.01
7:53:40 PM,-10.47,0.62,-0.29,0.01,0.06,0.01
7:53:41 PM,-10.39,0.69,-0.15,0.02,0.00,0.01
7:53:41 PM,-10.33,0.63,-0.01,0.04,0.05,0.01
7:53:41 PM,-10.30,0.64,-0.13,0.05,0.05,0.01
7:53:41 PM,-10.26,0.66,-0.18,0.05,0.03,0.01
7:53:41 PM,-10.42,0.68,-0.25,0.02,0.03,0.01
7:53:41 PM,-10.50,0.67,-0.24,0.00,0.00,0.01
7:53:41 PM,-10.38,0.63,-0.26,0.01,0.02,0.01
7:53:41 PM,-10.53,0.70,-0.25,0.01,-0.01,0.01
7:53:41 PM,-10.31,0.71,-0.29,0.03,-0.05,0.01
7:53:42 PM,-10.57,0.72,-0.20,0.01,-0.06,0.01
7:53:42 PM,-10.48,0.61,-0.06,-0.01,0.03,0.01
7:53:42 PM,-10.27,0.68,-0.23,0.01,-0.08,0.01
7:53:42 PM,-10.34,0.64,-0.32,0.00,0.05,0.01
7:53:42 PM,-10.44,0.66,-0.36,0.00,-0.01,0.01
7:53:42 PM,-10.48,0.66,-0.37,-0.03,-0.02,0.01
7:53:42 PM,-10.54,0.63,-0.20,-0.01,-0.01,0.01
7:53:42 PM,-10.33,0.67,-0.11,-0.00,-0.01,0.01
7:53:42 PM,-10.35,0.69,-0.17,0.02,-0.02,0.01
7:53:42 PM,-9.95,0.44,0.10,0.00,-0.07,0.01
7:53:43 PM,-9.67,1.19,-0.83,-0.20,-0.06,0.01
7:53:43 PM,-10.48,0.62,-0.26,0.01,0.01,0.01
7:53:43 PM,-10.41,0.53,0.07,0.09,0.02,0.01
7:53:43 PM,-10.45,0.62,0.01,0.02,-0.14,0.01
7:53:43 PM,-10.38,0.56,-0.12,0.04,-0.01,0.01
7:53:43 PM,-10.21,0.58,-0.01,0.04,-0.07,0.01
7:53:43 PM,-10.78,0.51,0.07,0.09,-0.08,0.01
7:53:43 PM,-10.45,0.68,0.19,0.07,-0.15,0.01
7:53:43 PM,-10.53,0.58,0.17,0.00,-0.01,0.01
7:53:44 PM,-10.11,0.71,-0.09,-0.03,0.00,0.01
7:53:44 PM,-10.59,0.70,-0.48,-0.01,-0.06,0.01
7:53:44 PM,-10.81,0.64,-0.11,0.17,-0.03,0.01
7:53:44 PM,-10.25,0.70,0.09,0.12,-0.13,0.01
7:53:44 PM,-10.19,0.80,0.00,0.06,-0.15,0.01
7:53:44 PM,-10.15,0.88,-0.22,0.12,-0.13,0.01
7:53:44 PM,-10.31,0.86,0.21,0.02,-0.01,0.01
7:53:44 PM,-10.69,0.74,0.09,0.06,0.02,0.01
7:53:44 PM,-10.12,0.87,-0.01,0.01,0.02,0.01
7:53:44 PM,-10.49,0.80,0.08,0.00,-0.02,0.01
7:53:45 PM,-10.35,0.79,-0.03,-0.03,0.03,0.01
7:53:45 PM,-10.39,0.83,-0.01,-0.02,-0.01,0.01
7:53:45 PM,-10.58,0.79,-0.05,0.05,-0.00,0.01
7:53:45 PM,-10.57,0.76,-0.04,0.00,0.03,0.01
7:53:45 PM,-10.21,0.88,-0.09,0.03,-0.05,0.01
7:53:45 PM,-10.47,0.74,0.04,0.02,0.04,0.01
7:53:45 PM,-10.39,0.81,-0.20,-0.01,0.01,0.01
7:53:45 PM,-10.33,0.81,-0.14,0.00,-0.04,0.01
7:53:45 PM,-10.27,0.81,-0.21,-0.02,-0.01,0.01
7:53:46 PM,-10.40,0.78,-0.17,-0.01,0.00,0.01
7:53:46 PM,-10.39,0.81,-0.12,0.03,0.02,0.01
7:53:46 PM,-10.46,0.75,-0.10,0.00,0.01,0.01
7:53:46 PM,-10.38,0.72,-0.06,0.01,0.03,0.01
7:53:46 PM,-10.31,0.73,-0.01,0.01,-0.01,0.01
7:53:46 PM,-10.33,0.70,-0.00,0.00,-0.04,0.01
7:53:46 PM,-10.14,0.77,-0.09,0.04,-0.03,0.01
7:53:46 PM,-10.32,0.81,-0.20,0.01,-0.02,0.01
7:53:46 PM,-10.51,0.80,-0.36,-0.03,0.01,0.01
7:53:46 PM,-10.47,0.79,-0.31,-0.02,-0.01,0.01
7:53:47 PM,-10.43,0.82,-0.36,-0.02,-0.01,0.01
7:53:47 PM,-10.35,0.79,-0.24,0.00,-0.04,0.01
7:53:47 PM,-10.33,0.80,-0.16,-0.01,-0.05,0.01
7:53:47 PM,-10.05,0.73,-0.05,0.01,0.08,0.01
7:53:47 PM,-10.44,0.73,-0.28,0.01,-0.05,0.01
7:53:47 PM,-10.48,0.67,-0.17,0.02,-0.07,0.01
7:53:47 PM,-10.22,0.75,-0.28,0.04,-0.01,0.01
7:53:47 PM,-10.40,0.72,-0.20,0.02,-0.01,0.01
7:53:47 PM,-10.54,0.74,-0.24,0.02,-0.01,0.01
7:53:48 PM,-10.41,0.72,-0.13,0.00,0.01,0.01
7:53:48 PM,-10.35,0.71,-0.23,-0.00,-0.02,0.01
7:53:48 PM,-10.45,0.71,-0.20,0.04,-0.03,0.01
7:53:48 PM,-10.46,0.73,-0.15,0.01,0.02,0.01
7:53:48 PM,-10.50,0.72,-0.09,0.02,-0.03,0.01
7:53:48 PM,-10.60,0.68,-0.01,0.04,-0.04,0.01
7:53:48 PM,-10.34,0.71,-0.14,0.02,-0.01,0.01
7:53:48 PM,-10.53,0.68,-0.27,0.03,0.01,0.01
7:53:48 PM,-10.34,0.82,-0.34,0.01,0.00,0.01
7:53:48 PM,-10.47,0.72,-0.37,-0.01,0.06,0.01
7:53:49 PM,-10.21,0.84,-0.60,0.02,-0.05,0.01
7:53:49 PM,-10.37,0.76,-0.44,-0.01,0.01,0.01
7:53:49 PM,-10.15,0.82,-0.47,0.01,-0.04,0.01
7:53:49 PM,-10.50,0.72,-0.59,0.00,0.03,0.01
7:53:49 PM,-10.44,0.74,-0.44,-0.02,-0.03,0.01
7:53:49 PM,-10.34,0.74,-0.30,-0.04,-0.09,0.01
7:53:49 PM,-10.55,0.75,-0.25,-0.02,-0.04,0.01
7:53:49 PM,-10.48,0.69,-0.20,0.01,0.02,0.01
7:53:49 PM,-10.41,0.73,-0.25,0.02,-0.02,0.01
7:53:50 PM,-10.35,0.80,-0.28,0.01,-0.02,0.01
7:53:50 PM,-10.47,0.72,-0.29,-0.03,-0.02,0.01
7:53:50 PM,-10.56,0.72,-0.13,-0.01,-0.01,0.01
7:53:50 PM,-10.50,0.67,-0.06,-0.02,0.01,0.01
7:53:50 PM,-10.48,0.75,-0.33,0.00,-0.01,0.01
7:53:50 PM,-10.44,0.68,-0.14,-0.00,-0.03,0.01
7:53:50 PM,-10.45,0.69,-0.06,0.02,-0.01,0.01
7:53:50 PM,-10.47,0.77,-0.30,0.01,-0.10,0.01
7:53:50 PM,-10.41,0.76,-0.40,-0.02,0.03,0.01
7:53:51 PM,-10.48,0.82,-0.45,0.00,0.01,0.01
7:53:51 PM,-10.30,0.83,-0.37,-0.03,-0.02,0.01
7:53:51 PM,-10.15,0.82,-0.30,0.02,-0.04,0.01
7:53:51 PM,-10.50,0.76,-0.28,0.01,0.01,0.01
7:53:51 PM,-10.45,0.80,-0.32,0.03,-0.03,0.01
7:53:51 PM,-10.69,0.75,-0.18,0.02,-0.01,0.01
7:53:51 PM,-10.56,0.78,-0.37,-0.02,-0.16,0.01
7:53:51 PM,-10.66,0.79,-0.36,-0.03,0.08,0.01
7:53:51 PM,-10.31,0.74,-0.29,-0.01,0.03,0.01
7:53:51 PM,-10.37,0.74,-0.34,0.03,-0.05,0.01
7:53:52 PM,-10.44,0.75,-0.35,0.00,-0.03,0.01
7:53:52 PM,-10.43,0.76,-0.32,0.03,-0.00,0.01
7:53:52 PM,-10.40,0.72,-0.24,0.02,-0.02,0.01
7:53:52 PM,-10.41,0.75,-0.36,-0.00,-0.03,0.01
7:53:52 PM,-10.51,0.73,-0.31,-0.04,0.06,0.01
7:53:52 PM,-10.30,0.79,-0.37,-0.00,-0.04,0.01
7:53:52 PM,-10.47,0.68,-0.10,-0.01,-0.01,0.01
7:53:52 PM,-10.63,0.74,-0.19,0.02,0.01,0.01
7:53:52 PM,-10.29,0.73,-0.07,0.03,-0.07,0.01
7:53:53 PM,-10.40,0.74,-0.06,0.02,-0.06,0.01
7:53:53 PM,-10.36,0.75,-0.05,-0.01,-0.04,0.01
7:53:53 PM,-10.25,0.76,-0.17,0.01,-0.01,0.01
7:53:53 PM,-10.24,0.81,-0.23,0.06,-0.04,0.01
7:53:53 PM,-10.69,0.68,-0.44,0.05,-0.04,0.01
7:53:53 PM,-10.19,0.77,-0.21,-0.01,-0.07,0.01
7:53:53 PM,-10.50,0.76,-0.27,0.01,0.01,0.01
7:53:53 PM,-10.51,0.73,-0.27,-0.02,0.03,0.01
7:53:53 PM,-10.37,0.75,-0.32,0.00,-0.02,0.01
7:53:53 PM,-10.57,0.75,-0.34,-0.01,0.00,0.01
7:53:54 PM,-10.38,0.77,-0.47,0.00,0.00,0.01
7:53:54 PM,-10.34,0.76,-0.45,0.00,-0.02,0.01
7:53:54 PM,-10.39,0.79,-0.33,0.01,0.01,0.01
7:53:54 PM,-10.34,0.69,-0.09,-0.02,0.00,0.01
7:53:54 PM,-10.21,0.79,-0.24,-0.01,-0.06,0.01
7:53:54 PM,-10.36,0.72,-0.28,-0.01,0.01,0.01
7:53:54 PM,-10.42,0.67,-0.21,-0.00,0.00,0.01
7:53:54 PM,-10.50,0.68,-0.29,-0.00,0.02,0.01
7:53:54 PM,-10.59,0.73,-0.45,0.01,0.01,0.01
7:53:55 PM,-10.43,0.69,-0.29,0.00,0.01,0.01
7:53:55 PM,-10.42,0.72,-0.27,0.00,0.02,0.01
7:53:55 PM,-10.37,0.68,-0.12,0.02,-0.08,0.01
7:53:55 PM,-10.63,0.72,-0.26,0.01,-0.01,0.01
7:53:55 PM,-10.52,0.70,-0.37,-0.00,0.03,0.01
7:53:55 PM,-10.28,0.74,-0.43,-0.01,0.00,0.01
7:53:55 PM,-10.56,0.70,-0.33,-0.01,-0.04,0.01
7:53:55 PM,-10.52,0.76,-0.39,0.01,-0.06,0.01
7:53:55 PM,-10.19,0.75,-0.20,0.02,-0.04,0.01
7:53:55 PM,-10.56,0.61,0.09,0.06,0.01,0.01
7:53:56 PM,-10.40,0.67,0.04,0.02,-0.04,0.01
7:53:56 PM,-10.55,0.71,-0.20,0.02,-0.06,0.01
7:53:56 PM,-10.25,0.68,-0.03,0.02,-0.05,0.01
7:53:56 PM,-10.41,0.62,0.10,0.03,-0.00,0.01
7:53:56 PM,-10.54,0.66,0.07,0.03,-0.03,0.01
7:53:56 PM,-10.50,0.63,0.05,0.01,-0.06,0.01
7:53:56 PM,-10.38,0.72,0.06,0.04,-0.04,0.01
7:53:56 PM,-10.39,0.69,-0.16,-0.02,0.03,0.01
7:53:56 PM,-10.58,0.67,-0.20,0.01,0.02,0.01
7:53:57 PM,-10.60,0.66,-0.17,-0.02,0.02,0.01
7:53:57 PM,-10.36,0.71,-0.34,-0.04,-0.04,0.01
7:53:57 PM,-10.66,0.75,-0.41,0.04,0.05,0.01
7:53:57 PM,-10.31,0.79,-0.76,-0.04,0.05,0.01
7:53:57 PM,-10.46,0.88,-0.99,-0.06,0.09,0.01
7:53:57 PM,-10.86,0.76,-0.73,-0.01,0.06,0.01
7:53:57 PM,-10.40,0.79,-0.51,0.05,-0.08,0.01
7:53:57 PM,-10.26,0.92,-0.47,0.07,-0.00,0.01
7:53:57 PM,-10.20,0.67,-0.27,-0.01,-0.01,0.01
7:53:57 PM,-10.48,0.73,-0.46,0.05,0.02,0.01
7:53:58 PM,-10.49,0.74,-0.37,-0.01,0.01,0.01
7:53:58 PM,-10.42,0.61,-0.34,0.01,0.04,0.01
7:53:58 PM,-10.46,0.74,-0.31,0.01,-0.01,0.01
7:53:58 PM,-10.45,0.75,-0.55,0.01,-0.05,0.01
7:53:58 PM,-10.51,0.73,-0.48,0.01,-0.02,0.01
7:53:58 PM,-10.27,0.78,-0.36,0.04,-0.12,0.01
7:53:58 PM,-10.16,0.74,-0.26,-0.01,0.04,0.01
7:53:58 PM,-10.43,0.74,-0.56,0.01,-0.00,0.01
7:53:58 PM,-10.48,0.67,-0.13,0.02,0.04,0.01
7:53:59 PM,-10.36,0.68,-0.21,0.02,-0.04,0.01
7:53:59 PM,-10.29,0.72,-0.24,0.05,-0.03,0.01
7:53:59 PM,-10.63,0.67,-0.23,-0.01,-0.05,0.01
7:53:59 PM,-10.24,0.81,-0.51,-0.01,-0.01,0.01
7:53:59 PM,-10.41,0.72,-0.36,0.04,-0.01,0.01
7:53:59 PM,-10.45,0.69,0.15,0.06,-0.06,0.01
7:53:59 PM,-10.29,0.64,0.18,0.00,-0.12,0.01
7:53:59 PM,-10.53,0.67,0.16,0.04,-0.13,0.01
7:53:59 PM,-10.37,0.71,-0.00,-0.00,-0.01,0.01
7:53:59 PM,-10.39,0.67,0.02,-0.01,-0.04,0.01
7:54:00 PM,-10.22,0.70,-0.09,-0.00,-0.05,0.01
7:54:00 PM,-10.33,0.65,-0.06,0.03,-0.03,0.01
7:54:00 PM,-10.45,0.74,-0.19,0.03,-0.00,0.01
7:54:00 PM,-10.47,0.71,-0.24,0.04,-0.10,0.01
7:54:00 PM,-10.46,0.72,-0.39,-0.00,0.03,0.01
7:54:00 PM,-10.57,0.72,-0.37,-0.01,0.06,0.01
7:54:00 PM,-10.37,0.72,-0.42,-0.01,-0.03,0.01
7:54:00 PM,-10.40,0.78,-0.47,0.01,-0.05,0.01
7:54:00 PM,-10.43,0.74,-0.52,0.03,0.02,0.01
7:54:01 PM,-10.48,0.68,-0.30,0.06,-0.07,0.01
7:54:01 PM,-10.30,0.61,0.05,0.03,-0.08,0.01
7:54:01 PM,-10.32,0.71,-0.26,0.02,-0.02,0.01
7:54:01 PM,-10.47,0.63,-0.25,0.00,-0.01,0.01
7:54:01 PM,-10.34,0.66,-0.10,0.01,-0.00,0.01
7:54:01 PM,-10.33,0.67,-0.29,0.01,-0.05,0.01
7:54:01 PM,-10.34,0.70,-0.25,0.03,0.01,0.01
7:54:01 PM,-10.30,0.66,-0.36,0.02,-0.02,0.01
7:54:01 PM,-10.50,0.65,-0.43,0.01,0.02,0.01
7:54:01 PM,-10.43,0.67,-0.47,-0.00,0.02,0.01
7:54:02 PM,-10.45,0.66,-0.45,0.00,-0.03,0.01
7:54:02 PM,-9.26,1.15,-1.11,-0.48,0.01,0.01
7:54:02 PM,-10.87,0.63,-0.89,0.07,-0.10,0.01
7:54:02 PM,-10.54,0.58,-0.56,0.03,-0.00,0.01
7:54:02 PM,-10.35,0.57,-0.43,-0.00,0.00,0.01
7:54:02 PM,-10.52,0.52,-0.37,-0.02,0.00,0.01
7:54:02 PM,-10.36,0.55,-0.43,-0.03,-0.02,0.01
7:54:02 PM,-10.56,0.75,-0.89,-0.08,-0.00,0.01
7:54:02 PM,-10.09,0.75,-0.70,0.05,-0.08,0.01
7:54:03 PM,-10.38,0.66,-0.66,-0.06,0.11,0.01
7:54:03 PM,-10.47,0.46,-0.26,0.04,0.06,0.01
7:54:03 PM,-10.66,0.51,-0.39,-0.18,0.14,0.01
7:54:03 PM,-10.72,0.68,-0.83,-0.05,0.01,0.01
7:54:03 PM,-10.49,0.74,-0.96,0.00,0.10,0.01
7:54:03 PM,-9.97,1.05,-1.00,-0.06,0.47,0.01
7:54:03 PM,-10.40,0.88,-0.80,-0.03,-0.02,0.01
7:54:03 PM,-10.49,0.83,-0.71,-0.06,-0.00,0.01
7:54:03 PM,-10.40,0.88,-0.79,-0.03,-0.04,0.01
7:54:04 PM,-10.41,0.78,-0.57,-0.07,0.05,0.01
7:54:04 PM,-9.99,0.66,-0.33,0.01,0.02,0.01
7:54:04 PM,-10.59,0.66,-0.39,-0.00,-0.06,0.01
7:54:04 PM,-10.49,0.72,-0.53,0.06,-0.07,0.01
7:54:04 PM,-10.51,0.74,-0.54,0.03,-0.08,0.01
7:54:04 PM,-10.44,0.70,-0.33,0.04,-0.02,0.01
7:54:04 PM,-10.37,0.74,-0.45,0.02,-0.02,0.01
7:54:04 PM,-10.56,0.79,-0.63,-0.01,0.00,0.01
7:54:04 PM,-10.55,0.71,-0.59,0.05,-0.07,0.01
7:54:04 PM,-10.53,0.73,-0.70,0.01,-0.03,0.01
7:54:05 PM,-10.01,0.81,-0.61,0.08,-0.10,0.01
7:54:05 PM,-10.32,0.76,-0.71,0.02,-0.03,0.01
7:54:05 PM,-10.44,0.74,-0.74,-0.02,0.02,0.01
7:54:05 PM,-10.35,0.74,-0.80,-0.06,0.02,0.01
7:54:05 PM,-9.82,1.28,-1.47,-0.08,-0.09,0.01
7:54:05 PM,-11.29,0.60,-0.87,0.12,-0.01,0.01
7:54:05 PM,-10.35,0.66,-0.54,0.10,-0.09,0.01
7:54:05 PM,-10.34,0.69,-0.51,0.10,-0.01,0.01
7:54:05 PM,-10.32,0.71,-0.61,0.02,0.00,0.01
7:54:06 PM,-10.54,0.68,-0.68,0.10,-0.02,0.01
7:54:06 PM,-10.50,0.68,-0.56,0.01,0.01,0.01
7:54:06 PM,-10.40,0.64,-0.49,0.01,-0.02,0.01
7:54:06 PM,-10.41,0.67,-0.55,-0.01,-0.01,0.01
7:54:06 PM,-10.41,0.70,-0.62,0.01,-0.02,0.01
7:54:06 PM,-10.42,0.64,-0.71,-0.00,0.02,0.01
7:54:06 PM,-10.36,0.67,-0.63,0.01,-0.01,0.01
7:54:06 PM,-10.61,0.53,-0.59,0.03,0.00,0.01
7:54:06 PM,-10.39,0.61,-0.36,0.03,-0.01,0.01
7:54:06 PM,-10.51,0.60,-0.62,-0.00,0.00,0.01
7:54:07 PM,-10.38,0.62,-0.59,0.01,-0.00,0.01
7:54:07 PM,-10.52,0.59,-0.60,-0.02,0.02,0.01
7:54:07 PM,-10.44,0.58,-0.59,-0.01,-0.02,0.01
7:54:07 PM,-10.36,0.62,-0.60,0.00,-0.01,0.01
7:54:07 PM,-10.37,0.59,-0.64,0.00,0.01,0.01
7:54:07 PM,-10.53,0.51,-0.71,-0.00,-0.03,0.01
7:54:07 PM,-10.46,0.64,-0.85,-0.00,-0.06,0.01
7:54:07 PM,-10.44,0.63,-0.80,-0.01,-0.02,0.01
7:54:07 PM,-10.51,0.61,-0.78,-0.01,-0.03,0.01
7:54:08 PM,-10.44,0.60,-0.79,-0.00,0.02,0.01
7:54:08 PM,-10.48,0.63,-0.85,0.00,-0.01,0.01
7:54:08 PM,-10.41,0.62,-0.73,-0.00,-0.02,0.01
7:54:08 PM,-10.44,0.62,-0.69,0.00,-0.05,0.01
7:54:08 PM,-10.44,0.58,-0.51,-0.00,-0.06,0.01
7:54:08 PM,-10.53,0.64,-0.69,0.00,0.01,0.01
7:54:08 PM,-10.45,0.62,-0.82,0.00,0.02,0.01
7:54:08 PM,-10.46,0.62,-0.79,0.00,0.02,0.01
7:54:08 PM,-10.43,0.59,-0.70,-0.01,-0.03,0.01
7:54:08 PM,-10.40,0.60,-0.72,-0.00,-0.02,0.01
7:54:09 PM,-10.46,0.59,-0.57,0.01,-0.04,0.01
7:54:09 PM,-10.48,0.61,-0.68,0.00,-0.06,0.01
7:54:09 PM,-10.58,0.60,-0.63,0.01,-0.00,0.01
7:54:09 PM,-10.42,0.62,-0.66,-0.03,0.01,0.01
7:54:09 PM,-10.53,0.59,-0.68,-0.00,0.02,0.01
7:54:09 PM,-10.50,0.60,-0.75,-0.01,-0.04,0.01
7:54:09 PM,-10.54,0.60,-0.87,0.00,-0.07,0.01
7:54:09 PM,-10.54,0.63,-0.80,0.00,-0.03,0.01
7:54:09 PM,-10.37,0.55,-0.51,-0.00,-0.04,0.01
7:54:10 PM,-10.51,0.60,-0.66,0.06,-0.02,0.01
7:54:10 PM,-10.41,0.63,-0.67,-0.02,-0.05,0.01
7:54:10 PM,-10.33,0.67,-0.80,0.03,-0.01,0.01
7:54:10 PM,-10.46,0.56,-0.51,-0.00,-0.03,0.01
7:54:10 PM,-10.47,0.66,-0.71,0.03,-0.05,0.01
7:54:10 PM,-10.50,0.57,-0.48,0.02,-0.01,0.01
7:54:10 PM,-10.30,0.70,-0.57,-0.01,-0.03,0.01
7:54:10 PM,-10.49,0.57,-0.67,0.02,0.01,0.01
7:54:10 PM,-10.28,0.61,-0.46,0.00,-0.03,0.01
7:54:10 PM,-10.53,0.53,-0.55,0.03,0.08,0.01
7:54:11 PM,-10.47,0.59,-0.64,0.03,-0.01,0.01
7:54:11 PM,-10.50,0.56,-0.60,0.00,0.03,0.01
7:54:11 PM,-10.48,0.60,-0.79,0.03,-0.02,0.01
7:54:11 PM,-10.60,0.56,-0.76,0.03,-0.02,0.01
7:54:11 PM,-10.26,0.50,-0.67,-0.01,-0.08,0.01
7:54:11 PM,-10.52,0.61,-0.83,0.02,-0.02,0.01
7:54:11 PM,-10.38,0.60,-0.87,0.02,-0.02,0.01
7:54:11 PM,-10.46,0.62,-0.81,0.01,-0.03,0.01
7:54:11 PM,-10.47,0.56,-0.84,0.01,-0.02,0.01
7:54:12 PM,-10.55,0.61,-0.92,0.01,-0.02,0.01
7:54:12 PM,-10.49,0.63,-0.83,0.04,-0.01,0.01
7:54:12 PM,-10.67,0.53,-0.65,0.02,-0.01,0.01
7:54:12 PM,-10.32,0.65,-0.68,-0.00,-0.08,0.01
7:54:12 PM,-10.54,0.59,-0.74,-0.02,-0.06,0.01
7:54:12 PM,-10.47,0.60,-0.70,-0.00,0.02,0.01
7:54:12 PM,-10.35,0.54,-0.66,0.02,-0.01,0.01
7:54:12 PM,-10.29,0.65,-0.74,-0.00,-0.08,0.01
7:54:12 PM,-10.41,0.60,-0.75,-0.00,-0.05,0.01
7:54:12 PM,-10.49,0.61,-0.69,-0.01,-0.05,0.01
7:54:13 PM,-10.48,0.61,-0.73,-0.01,0.02,0.01
7:54:13 PM,-10.48,0.61,-0.79,0.01,0.00,0.01
7:54:13 PM,-10.32,0.63,-0.72,-0.01,-0.01,0.01
7:54:13 PM,-10.42,0.57,-0.51,0.01,0.01,0.01
7:54:13 PM,-10.37,0.67,-0.99,0.01,0.05,0.01
7:54:13 PM,-10.42,0.63,-0.80,0.02,-0.05,0.01
7:54:13 PM,-10.36,0.59,-0.59,0.01,0.04,0.01
7:54:13 PM,-10.49,0.62,-0.69,0.03,-0.05,0.01
7:54:13 PM,-10.32,0.62,-0.52,0.03,-0.05,0.01
7:54:14 PM,-10.45,0.59,-0.55,0.01,-0.00,0.01
7:54:14 PM,-10.52,0.53,-0.54,-0.01,0.02,0.01
7:54:14 PM,-10.42,0.53,-0.49,0.00,0.02,0.01
7:54:14 PM,-10.52,0.51,-0.51,-0.01,-0.01,0.01
7:54:14 PM,-10.52,0.64,-0.72,-0.01,0.01,0.01
7:54:14 PM,-10.39,0.57,-0.64,-0.01,-0.05,0.01
7:54:14 PM,-10.41,0.59,-0.75,0.02,-0.03,0.01
7:54:14 PM,-10.48,0.57,-0.69,0.01,0.02,0.01
7:54:14 PM,-10.57,0.62,-0.66,0.06,-0.02,0.01
7:54:15 PM,-10.55,0.62,-0.81,0.01,0.01,0.01
7:54:15 PM,-10.35,0.58,-0.63,0.04,-0.05,0.01
7:54:15 PM,-10.36,0.60,-0.68,0.02,-0.02,0.01
7:54:15 PM,-10.42,0.61,-0.72,0.02,-0.01,0.01
7:54:15 PM,-10.52,0.62,-0.65,-0.02,0.02,0.01
7:54:15 PM,-10.47,0.59,-0.67,0.00,0.01,0.01
7:54:15 PM,-10.48,0.59,-0.70,-0.01,-0.03,0.01
7:54:15 PM,-10.47,0.63,-0.73,-0.01,-0.05,0.01
7:54:15 PM,-10.47,0.56,-0.64,-0.01,-0.02,0.01
7:54:15 PM,-10.38,0.66,-0.76,-0.00,-0.01,0.01
7:54:16 PM,-10.41,0.60,-0.69,-0.00,-0.01,0.01
7:54:16 PM,-10.35,0.65,-0.94,0.01,-0.02,0.01
7:54:16 PM,-10.44,0.57,-0.75,0.02,0.02,0.01
7:54:16 PM,-10.56,0.54,-0.60,0.03,-0.04,0.01
7:54:16 PM,-10.54,0.58,-0.59,0.03,-0.04,0.01
7:54:16 PM,-10.65,0.53,-0.43,0.02,0.03,0.01
7:54:16 PM,-10.12,0.69,-0.49,0.06,-0.05,0.01
7:54:16 PM,-10.44,0.68,-0.76,0.00,0.03,0.01
7:54:16 PM,-10.24,0.68,-0.81,0.06,-0.02,0.01
7:54:17 PM,-10.41,0.65,-0.70,0.05,-0.01,0.01
7:54:17 PM,-10.58,0.62,-0.77,0.01,-0.04,0.01
7:54:17 PM,-10.47,0.65,-0.76,0.01,0.04,0.01
7:54:17 PM,-10.38,0.57,-0.74,-0.00,-0.01,0.01
7:54:17 PM,-10.42,0.63,-0.77,0.00,-0.06,0.01
7:54:17 PM,-10.49,0.56,-0.65,0.02,-0.01,0.01
7:54:17 PM,-10.43,0.51,-0.59,0.01,-0.02,0.01
7:54:17 PM,-10.43,0.61,-0.70,0.00,-0.00,0.01
7:54:17 PM,-10.56,0.54,-0.77,0.03,-0.02,0.01
7:54:17 PM,-10.55,0.64,-0.71,0.00,-0.01,0.01
7:54:18 PM,-10.51,0.59,-0.66,0.01,-0.03,0.01
7:54:18 PM,-10.42,0.59,-0.60,0.01,-0.01,0.01
7:54:18 PM,-10.41,0.62,-0.70,-0.02,-0.03,0.01
7:54:18 PM,-10.38,0.59,-0.60,0.03,-0.02,0.01
7:54:18 PM,-10.55,0.62,-0.87,0.00,0.01,0.01
7:54:18 PM,-10.54,0.59,-0.74,0.01,-0.03,0.01
7:54:18 PM,-10.58,0.55,-0.65,0.03,-0.05,0.01
7:54:18 PM,-10.63,0.64,-0.78,-0.02,-0.02,0.01
7:54:18 PM,-10.53,0.57,-0.72,0.00,-0.01,0.01
7:54:19 PM,-10.24,0.65,-0.74,-0.02,-0.05,0.01
7:54:19 PM,-10.46,0.61,-0.65,0.00,-0.01,0.01
7:54:19 PM,-10.55,0.62,-0.87,0.01,-0.01,0.01
7:54:19 PM,-10.39,0.58,-0.66,-0.01,0.01,0.01
7:54:19 PM,-10.41,0.59,-0.75,-0.00,-0.01,0.01
7:54:19 PM,-10.57,0.58,-0.70,0.04,-0.03,0.01
7:54:19 PM,-10.49,0.55,-0.56,-0.01,-0.01,0.01
7:54:19 PM,-10.36,0.57,-0.66,-0.02,-0.01,0.01
7:54:19 PM,-10.44,0.58,-0.73,-0.00,-0.02,0.01
7:54:19 PM,-10.49,0.61,-0.76,-0.02,-0.03,0.01
7:54:20 PM,-10.40,0.64,-0.93,0.02,-0.02,0.01
7:54:20 PM,-10.42,0.62,-0.86,0.02,-0.01,0.01
7:54:20 PM,-10.39,0.65,-0.86,0.04,0.02,0.01
7:54:20 PM,-10.52,0.59,-0.86,0.02,0.00,0.01
7:54:20 PM,-10.57,0.57,-0.71,-0.01,-0.02,0.01
7:54:20 PM,-10.47,0.55,-0.68,-0.01,-0.02,0.01
7:54:20 PM,-10.45,0.57,-0.77,0.01,-0.03,0.01
7:54:20 PM,-10.50,0.53,-0.77,0.02,-0.03,0.01
7:54:20 PM,-10.51,0.55,-0.73,0.01,-0.05,0.01
7:54:21 PM,-10.52,0.57,-0.63,-0.01,-0.05,0.01
7:54:21 PM,-10.45,0.62,-0.72,0.01,-0.02,0.01
7:54:21 PM,-10.55,0.59,-0.82,0.01,-0.02,0.01
7:54:21 PM,-10.52,0.61,-0.81,-0.00,-0.00,0.01
7:54:21 PM,-10.33,0.61,-0.66,-0.00,-0.02,0.01
7:54:21 PM,-10.47,0.63,-0.71,0.03,-0.01,0.01
7:54:21 PM,-10.42,0.64,-0.79,0.03,-0.02,0.01
7:54:21 PM,-10.37,0.62,-0.73,0.01,-0.04,0.01
7:54:21 PM,-10.55,0.62,-0.78,0.03,-0.01,0.01
7:54:21 PM,-10.52,0.60,-0.85,0.02,-0.02,0.01
7:54:22 PM,-10.46,0.57,-0.68,0.00,-0.01,0.01
7:54:22 PM,-10.50,0.61,-0.76,0.02,-0.00,0.01
7:54:22 PM,-10.49,0.61,-0.86,0.02,-0.06,0.01
7:54:22 PM,-10.43,0.61,-0.73,-0.02,-0.02,0.01
7:54:22 PM,-10.56,0.57,-0.68,0.02,-0.02,0.01
7:54:22 PM,-10.22,0.70,-0.89,0.10,-0.12,0.01
7:54:22 PM,-10.44,0.58,-0.66,-0.01,-0.03,0.01
7:54:22 PM,-10.40,0.60,-0.79,-0.04,-0.02,0.01
7:54:22 PM,-10.37,0.60,-0.77,0.01,-0.03,0.01
7:54:23 PM,-10.43,0.59,-0.61,0.01,-0.05,0.01
7:54:23 PM,-10.44,0.60,-0.73,-0.01,-0.00,0.01
7:54:23 PM,-10.43,0.59,-0.63,0.02,0.01,0.01
7:54:23 PM,-10.38,0.57,-0.72,0.02,-0.06,0.01
7:54:23 PM,-10.46,0.60,-0.81,-0.01,-0.02,0.01
7:54:23 PM,-10.37,0.59,-0.63,0.02,-0.03,0.01
7:54:23 PM,-10.42,0.57,-0.65,0.01,-0.02,0.01
7:54:23 PM,-10.42,0.55,-0.73,0.02,-0.00,0.01
7:54:23 PM,-10.46,0.58,-0.80,0.03,-0.06,0.01
7:54:23 PM,-10.50,0.62,-0.74,0.01,-0.01,0.01
7:54:24 PM,-10.56,0.63,-0.78,-0.00,0.01,0.01
7:54:24 PM,-10.30,0.64,-0.81,0.02,-0.05,0.01
7:54:24 PM,-10.43,0.60,-0.78,0.02,-0.01,0.01
7:54:24 PM,-10.44,0.60,-0.88,0.01,-0.03,0.01
7:54:24 PM,-10.41,0.60,-0.68,0.01,0.04,0.01
7:54:24 PM,-10.48,0.57,-0.79,-0.01,-0.02,0.01
7:54:24 PM,-10.38,0.67,-0.68,0.01,0.06,0.01
7:54:24 PM,-10.22,0.62,-0.89,-0.02,0.04,0.01
7:54:24 PM,-10.73,0.45,-0.47,0.00,-0.02,0.01
7:54:25 PM,-10.46,0.64,-0.57,-0.03,-0.03,0.01
7:54:25 PM,-10.54,0.57,-0.72,0.01,-0.01,0.01
7:54:25 PM,-10.52,0.64,-0.80,-0.00,0.01,0.01
7:54:25 PM,-10.52,0.52,-0.75,0.03,-0.04,0.01
7:54:25 PM,-10.47,0.66,-0.88,-0.01,0.08,0.01
7:54:25 PM,-10.40,0.62,-0.68,-0.00,-0.07,0.01
7:54:25 PM,-10.51,0.62,-0.71,0.02,-0.06,0.01
7:54:25 PM,-10.47,0.61,-0.72,-0.01,-0.06,0.01
7:54:25 PM,-10.38,0.64,-0.64,-0.00,-0.08,0.01
7:54:26 PM,-10.46,0.58,-0.57,-0.01,-0.03,0.01
7:54:26 PM,-10.54,0.53,-0.57,-0.02,-0.04,0.01
7:54:26 PM,-10.38,0.67,-0.58,-0.02,-0.01,0.01
7:54:26 PM,-10.52,0.47,-0.59,-0.01,0.07,0.01
7:54:26 PM,-10.36,0.68,-0.67,-0.00,-0.00,0.01
7:54:26 PM,-10.62,0.63,-0.77,0.01,-0.03,0.01
7:54:26 PM,-10.48,0.59,-0.71,0.02,-0.03,0.01
7:54:26 PM,-10.50,0.53,-0.55,0.01,0.01,0.01
7:54:26 PM,-10.41,0.62,-0.69,0.02,0.01,0.01
7:54:26 PM,-10.49,0.63,-0.91,0.03,-0.02,0.01
7:54:27 PM,-10.35,0.58,-0.66,-0.01,-0.03,0.01
7:54:27 PM,-10.50,0.61,-0.70,0.00,0.02,0.01
7:54:27 PM,-10.34,0.63,-0.65,0.00,-0.06,0.01
7:54:27 PM,-10.48,0.64,-0.73,0.00,-0.01,0.01
7:54:27 PM,-10.52,0.63,-0.69,0.02,-0.01,0.01
7:54:27 PM,-10.50,0.61,-0.66,-0.00,0.01,0.01
7:54:27 PM,-10.22,0.62,-0.67,0.02,-0.08,0.01
7:54:27 PM,-10.69,0.63,-1.12,0.01,-0.04,0.01
7:54:27 PM,-10.51,0.60,-0.83,0.01,0.06,0.01
7:54:28 PM,-10.41,0.65,-0.84,0.00,0.00,0.01
7:54:28 PM,-10.35,0.64,-0.66,0.00,0.04,0.01
7:54:28 PM,-10.40,0.59,-0.66,0.03,-0.02,0.01
7:54:28 PM,-12.17,0.57,-1.30,0.05,0.16,0.01
7:54:28 PM,-10.21,0.67,-0.86,0.06,0.08,0.01
7:54:28 PM,-10.23,0.75,-1.00,0.09,-0.02,0.01
7:54:28 PM,-10.35,0.61,-0.92,0.01,0.07,0.01
7:54:28 PM,-10.03,0.63,-0.88,0.10,-0.02,0.01
7:54:28 PM,-10.36,0.65,-0.99,0.02,0.00,0.01
7:54:28 PM,-10.29,0.58,-0.89,-0.01,0.07,0.01
7:54:29 PM,-10.53,0.54,-0.83,0.03,0.03,0.01
7:54:29 PM,-10.66,0.55,-0.88,0.00,0.02,0.01
7:54:29 PM,-10.73,0.38,-0.74,0.01,-0.02,0.01
7:54:29 PM,-10.44,0.70,-0.97,0.01,0.01,0.01
7:54:29 PM,-10.42,0.50,-0.83,0.01,-0.07,0.01
7:54:29 PM,-10.43,0.62,-0.77,-0.03,-0.01,0.01
7:54:29 PM,-10.33,0.56,-0.73,-0.01,-0.01,0.01
7:54:29 PM,-10.60,0.52,-0.78,-0.00,-0.04,0.01
7:54:29 PM,-10.55,0.60,-0.93,-0.01,0.01,0.01
7:54:30 PM,-10.45,0.57,-0.76,0.01,0.01,0.01
7:54:30 PM,-10.48,0.57,-0.78,-0.03,0.02,0.01
7:54:30 PM,-10.46,0.57,-0.92,-0.02,-0.02,0.01
7:54:30 PM,-10.42,0.62,-0.94,-0.01,-0.05,0.01
7:54:30 PM,-10.40,0.59,-0.82,-0.00,-0.03,0.01
7:54:30 PM,-10.40,0.62,-0.85,0.02,-0.05,0.01
7:54:30 PM,-10.52,0.66,-1.11,0.01,-0.02,0.01
7:54:30 PM,-10.44,0.62,-1.02,0.02,0.01,0.01
7:54:30 PM,-10.32,0.61,-0.86,0.06,-0.05,0.01
7:54:30 PM,-10.54,0.63,-0.97,0.06,0.01,0.01
7:54:31 PM,-10.35,0.59,-0.85,0.00,0.01,0.01
7:54:31 PM,-10.44,0.64,-0.90,0.05,-0.06,0.01
7:54:31 PM,-10.46,0.55,-0.71,0.00,0.01,0.01
7:54:31 PM,-10.39,0.62,-0.75,0.02,-0.02,0.01
7:54:31 PM,-10.52,0.54,-0.87,0.00,-0.03,0.01
7:54:31 PM,-10.46,0.56,-0.92,0.02,-0.04,0.01
7:54:31 PM,-10.41,0.60,-1.05,0.02,-0.05,0.01
7:54:31 PM,-10.45,0.57,-0.81,0.02,-0.03,0.01
7:54:31 PM,-10.42,0.59,-0.92,-0.01,0.01,0.01
7:54:32 PM,-10.46,0.57,-0.87,0.01,-0.07,0.01
7:54:32 PM,-10.38,0.55,-0.79,0.01,0.01,0.01
7:54:32 PM,-10.37,0.57,-0.75,0.03,-0.01,0.01
7:54:32 PM,-10.46,0.56,-0.76,0.03,-0.03,0.01
7:54:32 PM,-10.50,0.63,-1.11,0.02,-0.00,0.01
7:54:32 PM,-10.39,0.58,-0.87,0.06,0.09,0.01
7:54:32 PM,-10.94,0.58,-1.49,0.11,0.10,0.01
7:54:32 PM,-10.42,0.64,-1.08,-0.00,0.01,0.01
7:54:32 PM,-10.31,0.56,-0.73,0.05,-0.11,0.01
7:54:32 PM,-10.56,0.57,-0.82,0.05,-0.02,0.01
7:54:33 PM,-10.46,0.61,-0.87,0.01,-0.03,0.01
7:54:33 PM,-10.61,0.47,-0.93,0.02,-0.04,0.01
7:54:33 PM,-9.32,1.18,-1.45,-0.21,-0.07,0.01
7:54:33 PM,-10.24,0.54,-0.96,0.07,-0.08,0.01
7:54:33 PM,-10.50,0.47,-0.92,0.07,-0.09,0.01
7:54:33 PM,-10.50,0.48,-1.01,-0.02,0.01,0.01
7:54:33 PM,-10.34,0.75,-1.14,-0.12,-0.04,0.01
7:54:33 PM,-11.54,-0.01,-0.33,0.59,0.00,0.01
7:54:33 PM,-10.50,0.59,-0.57,0.14,-0.11,0.01
7:54:34 PM,-10.32,0.56,-0.63,0.01,-0.14,0.01
7:54:34 PM,-10.56,0.45,-0.79,-0.01,0.00,0.01
7:54:34 PM,-10.49,0.48,-0.91,0.09,-0.05,0.01
7:54:34 PM,-10.01,0.56,-0.79,0.06,-0.11,0.01
7:54:34 PM,-10.41,0.56,-1.02,0.06,-0.11,0.01
7:54:34 PM,-10.02,0.69,-1.22,0.08,0.01,0.01
7:54:34 PM,-10.45,0.63,-0.92,0.02,-0.03,0.01
7:54:34 PM,-10.21,0.71,-1.42,-0.11,-0.11,0.01
7:54:34 PM,-10.47,0.48,-0.81,0.32,-0.21,0.01
7:54:34 PM,-10.65,0.53,-0.68,0.10,-0.05,0.01
7:54:35 PM,-10.69,0.45,-0.71,0.10,-0.07,0.01
7:54:35 PM,-10.26,0.59,-1.09,-0.11,-0.02,0.01
7:54:35 PM,-10.42,0.48,-0.98,-0.00,0.00,0.01
7:54:35 PM,-10.61,0.43,-0.88,-0.06,0.13,0.01
7:54:35 PM,-10.70,0.61,-0.83,0.01,-0.05,0.01
7:54:35 PM,-10.71,0.30,-0.66,-0.06,-0.02,0.01
7:54:35 PM,-10.39,0.55,-0.94,0.04,-0.09,0.01
7:54:35 PM,-10.54,0.65,-1.00,0.01,-0.02,0.01
7:54:35 PM,-10.68,0.54,-0.86,0.04,0.04,0.01
7:54:36 PM,-10.44,0.56,-1.10,0.06,-0.03,0.01
7:54:36 PM,-10.53,0.57,-0.92,0.04,0.01,0.01
7:54:36 PM,-10.48,0.57,-0.87,0.05,0.00,0.01
7:54:36 PM,-10.40,0.59,-0.85,0.03,-0.06,0.01
7:54:36 PM,-10.67,0.65,-0.64,0.03,-0.07,0.01
7:54:36 PM,-10.38,0.59,-0.88,-0.03,-0.06,0.01
7:54:36 PM,-10.42,0.66,-1.00,-0.00,0.03,0.01
7:54:36 PM,-10.55,0.73,-0.99,-0.02,0.02,0.01
7:54:36 PM,-10.85,0.49,-0.69,-0.06,0.07,0.01
7:54:36 PM,-10.70,0.43,-0.68,-0.01,-0.08,0.01
7:54:37 PM,-10.66,0.72,-1.06,0.09,-0.28,0.01
7:54:37 PM,-10.57,0.71,-0.43,-0.11,-0.03,0.01
7:54:37 PM,-10.53,0.54,-0.43,-0.01,-0.04,0.01
7:54:37 PM,-10.62,0.48,-0.26,0.06,-0.07,0.01
7:54:37 PM,-10.67,0.50,-0.39,0.05,0.07,0.01
7:54:37 PM,-10.50,0.47,-0.43,-0.01,-0.06,0.01
7:54:37 PM,-10.46,0.57,-0.67,-0.01,-0.01,0.01
7:54:37 PM,-10.49,0.61,-0.48,0.02,-0.02,0.01
7:54:37 PM,-10.39,0.58,-0.68,0.01,-0.08,0.01
7:54:38 PM,-10.52,0.60,-0.78,0.02,-0.05,0.01
7:54:38 PM,-10.08,0.71,-0.74,0.02,-0.01,0.01
7:54:38 PM,-10.35,0.67,-0.90,0.00,0.05,0.01
7:54:38 PM,-10.34,0.59,-0.68,-0.00,0.07,0.01
7:54:38 PM,-10.42,0.67,-0.59,-0.01,-0.06,0.01
7:54:38 PM,-10.55,0.61,-0.76,-0.01,-0.06,0.01
7:54:38 PM,-10.35,0.51,-0.54,-0.03,-0.01,0.01
7:54:38 PM,-10.48,0.64,-0.53,-0.05,-0.04,0.01
7:54:38 PM,-10.52,0.62,-0.74,0.01,-0.02,0.01
7:54:39 PM,-10.45,0.51,-0.58,0.03,-0.00,0.01
7:54:39 PM,-10.45,0.69,-0.73,0.04,-0.03,0.01
7:54:39 PM,-10.45,0.61,-0.88,0.01,-0.04,0.01
7:54:39 PM,-10.33,0.70,-0.92,0.00,0.01,0.01
7:54:39 PM,-10.44,0.54,-0.74,-0.01,0.01,0.01
7:54:39 PM,-10.51,0.53,-0.78,-0.01,0.04,0.01
7:54:39 PM,-10.47,0.55,-0.61,0.01,0.04,0.01
7:54:39 PM,-10.47,0.64,-1.06,0.01,-0.01,0.01
7:54:39 PM,-10.52,0.57,-0.91,-0.01,-0.01,0.01
7:54:39 PM,-10.56,0.66,-0.96,-0.01,-0.02,0.01
7:54:40 PM,-10.49,0.54,-0.87,-0.02,-0.01,0.01
7:54:40 PM,-10.57,0.55,-0.74,0.00,-0.00,0.01
7:54:40 PM,-10.35,0.58,-0.87,-0.01,0.03,0.01
7:54:40 PM,-10.47,0.63,-0.81,0.04,-0.01,0.01
7:54:40 PM,-10.67,0.62,-0.80,0.03,-0.04,0.01
7:54:40 PM,-10.56,0.66,-0.99,0.00,-0.01,0.01
7:54:40 PM,-10.49,0.64,-0.87,-0.01,-0.02,0.01
7:54:40 PM,-10.40,0.57,-0.72,-0.00,0.01,0.01
7:54:40 PM,-10.52,0.69,-0.86,-0.01,-0.02,0.01
7:54:41 PM,-10.44,0.62,-0.80,-0.02,-0.03,0.01
7:54:41 PM,-10.32,0.65,-0.76,0.01,-0.04,0.01
7:54:41 PM,-10.51,0.62,-0.81,-0.00,-0.02,0.01
7:54:41 PM,-10.44,0.66,-0.83,-0.03,-0.06,0.01
7:54:41 PM,-10.53,0.68,-0.92,0.00,-0.00,0.01
7:54:41 PM,-10.29,0.63,-0.71,0.00,-0.08,0.01
7:54:41 PM,-10.43,0.72,-0.85,0.00,-0.04,0.01
7:54:41 PM,-10.49,0.56,-0.74,0.02,0.03,0.01
7:54:41 PM,-10.32,0.57,-0.61,0.01,0.05,0.01
7:54:41 PM,-10.50,0.51,-0.77,0.02,0.07,0.01
7:54:42 PM,-10.41,0.68,-0.82,0.02,-0.06,0.01
7:54:42 PM,-10.88,0.39,-0.41,0.09,-0.07,0.01
7:54:42 PM,-10.31,0.55,-0.51,-0.07,-0.17,0.01
7:54:42 PM,-10.33,0.68,-0.63,-0.01,-0.05,0.01
7:54:42 PM,-10.43,0.78,-1.07,0.04,-0.08,0.01
7:54:42 PM,-10.48,0.55,-0.90,0.00,0.03,0.01
7:54:42 PM,-10.52,0.82,-0.73,0.06,-0.07,0.01
7:54:42 PM,-10.36,0.41,-0.55,-0.01,-0.06,0.01
7:54:42 PM,-10.18,0.58,-0.14,0.01,-0.02,0.01
7:54:43 PM,-10.44,0.60,-0.28,-0.06,-0.09,0.01
7:54:43 PM,-10.38,0.45,-0.41,0.00,-0.04,0.01
7:54:43 PM,-10.50,0.50,-0.64,0.03,-0.15,0.01
7:54:43 PM,-10.36,0.78,-0.68,-0.01,-0.04,0.01
7:54:43 PM,-10.36,0.55,-0.59,-0.01,-0.00,0.01
7:54:43 PM,-10.29,0.70,-0.55,0.01,-0.02,0.01
7:54:43 PM,-10.27,0.59,-0.51,-0.02,0.01,0.01
7:54:43 PM,-10.54,0.64,-0.64,0.02,-0.05,0.01
7:54:43 PM,-10.46,0.62,-0.57,0.01,0.04,0.01
7:54:43 PM,-10.32,0.61,-0.79,0.02,-0.10,0.01
7:54:44 PM,-10.45,0.63,-0.57,0.03,-0.00,0.01
7:54:44 PM,-10.58,0.65,-0.88,0.01,0.09,0.01
7:54:44 PM,-10.44,0.71,-1.19,0.03,0.09,0.01
7:54:44 PM,-10.25,0.63,-0.58,-0.07,-0.21,0.01
7:54:44 PM,-10.62,0.62,-0.90,-0.02,0.00,0.01
7:54:44 PM,-10.51,0.73,-0.77,0.01,-0.01,0.01
7:54:44 PM,-10.43,0.62,-0.92,-0.00,-0.01,0.01
7:54:44 PM,-10.43,0.66,-0.73,0.02,-0.06,0.01
7:54:44 PM,-10.44,0.68,-0.85,0.01,-0.00,0.01
7:54:45 PM,-10.35,0.61,-0.69,0.01,-0.04,0.01
7:54:45 PM,-10.35,0.73,-0.80,0.03,-0.01,0.01
7:54:45 PM,-10.45,0.67,-0.66,0.01,-0.03,0.01
7:54:45 PM,-10.51,0.62,-0.74,-0.02,0.02,0.01
7:54:45 PM,-10.40,0.71,-0.72,-0.01,-0.02,0.01
7:54:45 PM,-10.54,0.60,-0.94,0.01,-0.04,0.01
7:54:45 PM,-10.52,0.81,-0.77,0.05,0.07,0.01
7:54:45 PM,-10.26,0.66,-0.76,0.03,-0.08,0.01
7:54:45 PM,-10.38,0.63,-0.61,0.02,-0.03,0.01
7:54:45 PM,-10.62,0.56,-0.68,0.07,0.12,0.01
7:54:46 PM,-10.32,0.58,-0.79,0.04,-0.03,0.01
7:54:46 PM,-10.49,0.54,-0.83,0.03,-0.02,0.01
7:54:46 PM,-10.31,0.63,-0.91,0.05,0.01,0.01
7:54:46 PM,-10.46,0.62,-0.83,-0.01,-0.03,0.01
7:54:46 PM,-10.45,0.63,-0.85,-0.01,-0.01,0.01
7:54:46 PM,-10.46,0.56,-0.73,0.00,0.01,0.01
7:54:46 PM,-10.39,0.50,-0.68,0.03,0.01,0.01
7:54:46 PM,-10.53,0.53,-0.84,0.04,0.01,0.01
7:54:46 PM,-10.47,0.60,-0.79,0.03,-0.02,0.01
7:54:47 PM,-10.53,0.62,-0.87,0.03,-0.05,0.01
7:54:47 PM,-10.37,0.57,-0.78,0.00,-0.04,0.01
7:54:47 PM,-10.45,0.67,-0.75,-0.01,-0.00,0.01
7:54:47 PM,-10.43,0.58,-0.86,0.00,0.00,0.01
7:54:47 PM,-10.41,0.57,-0.79,0.00,0.01,0.01
7:54:47 PM,-10.45,0.56,-0.91,0.05,-0.04,0.01
7:54:47 PM,-10.42,0.72,-1.04,0.01,-0.06,0.01
7:54:47 PM,-10.35,0.55,-0.86,0.00,-0.05,0.01
7:54:47 PM,-10.42,0.60,-0.73,0.02,-0.01,0.01
7:54:48 PM,-10.44,0.58,-0.70,0.02,-0.00,0.01
7:54:48 PM,-10.41,0.59,-0.86,0.01,-0.01,0.01
7:54:48 PM,-10.45,0.56,-0.78,0.00,0.03,0.01
7:54:48 PM,-10.47,0.54,-0.98,0.02,-0.01,0.01
7:54:48 PM,-10.41,0.66,-1.12,-0.01,0.00,0.01
7:54:48 PM,-10.34,0.52,-0.92,0.01,-0.07,0.01
7:54:48 PM,-10.38,0.61,-0.88,-0.02,-0.03,0.01
7:54:48 PM,-10.52,0.56,-1.03,-0.03,-0.01,0.01
7:54:48 PM,-10.47,0.54,-0.92,-0.03,-0.06,0.01
7:54:48 PM,-10.60,0.59,-1.01,0.01,-0.02,0.01
7:54:49 PM,-10.48,0.60,-0.99,-0.00,-0.06,0.01
7:54:49 PM,-10.43,0.59,-0.95,0.00,-0.03,0.01
7:54:49 PM,-10.39,0.61,-0.97,0.00,-0.04,0.01
7:54:49 PM,-10.35,0.66,-0.90,-0.00,-0.02,0.01
7:54:49 PM,-10.58,0.43,-0.79,0.02,0.03,0.01
7:54:49 PM,-10.36,0.62,-0.94,0.01,-0.05,0.01
7:54:49 PM,-10.46,0.57,-0.90,-0.02,-0.01,0.01
7:54:49 PM,-10.54,0.62,-0.85,-0.01,-0.04,0.01
7:54:49 PM,-10.41,0.61,-0.90,-0.00,-0.02,0.01
7:54:50 PM,-10.53,0.43,-0.91,0.01,0.03,0.01
7:54:50 PM,-10.51,0.66,-1.04,0.00,0.02,0.01
7:54:50 PM,-10.29,0.59,-0.90,-0.01,-0.10,0.01
7:54:50 PM,-10.49,0.63,-0.87,0.00,0.04,0.01
7:54:50 PM,-10.48,0.46,-0.89,-0.01,-0.04,0.01
7:54:50 PM,-10.31,0.64,-0.64,-0.02,-0.11,0.01
7:54:50 PM,-10.71,0.51,-1.06,0.00,-0.03,0.01
7:54:50 PM,-10.39,0.52,-0.85,-0.01,-0.13,0.01
7:54:50 PM,-10.29,0.58,-0.69,-0.01,-0.01,0.01
7:54:50 PM,-10.51,0.59,-0.72,0.00,-0.04,0.01
7:54:51 PM,-10.33,0.49,-0.67,0.02,0.01,0.01
7:54:51 PM,-10.51,0.61,-0.76,0.01,0.10,0.01
7:54:51 PM,-10.44,0.43,-0.94,0.00,-0.06,0.01
7:54:51 PM,-10.38,0.68,-0.92,0.03,0.05,0.01
7:54:51 PM,-10.35,0.47,-0.88,0.01,-0.04,0.01
7:54:51 PM,-10.40,0.66,-0.89,-0.00,-0.02,0.01
7:54:51 PM,-10.53,0.51,-0.84,0.01,0.00,0.01
7:54:51 PM,-10.37,0.50,-0.62,0.00,0.00,0.01
7:54:51 PM,-10.58,0.68,-0.93,0.01,-0.01,0.01
7:54:52 PM,-10.73,0.51,-1.01,0.01,0.03,0.01
7:54:52 PM,-10.45,0.51,-0.86,0.02,-0.06,0.01
7:54:52 PM,-10.50,0.72,-0.82,0.00,-0.05,0.01
7:54:52 PM,-10.44,0.59,-0.77,0.00,-0.04,0.01
7:54:52 PM,-10.39,0.47,-0.64,0.02,-0.05,0.01
7:54:52 PM,-10.65,0.47,-0.64,0.07,0.02,0.01
7:54:52 PM,-10.44,0.60,-0.62,0.04,0.06,0.01
7:54:52 PM,-10.56,0.46,-0.77,-0.01,0.02,0.01
7:54:52 PM,-10.50,0.68,-0.93,0.01,-0.06,0.01
7:54:52 PM,-10.36,0.58,-0.73,-0.02,-0.01,0.01
7:54:53 PM,-10.43,0.58,-0.78,0.01,-0.04,0.01
7:54:53 PM,-10.48,0.61,-0.83,0.01,-0.01,0.01
7:54:53 PM,-10.41,0.48,-0.72,0.01,-0.03,0.01
7:54:53 PM,-10.52,0.56,-0.77,0.01,0.01,0.01
7:54:53 PM,-10.38,0.58,-0.73,0.03,-0.02,0.01
7:54:53 PM,-10.40,0.55,-0.83,0.01,-0.07,0.01
7:54:53 PM,-10.38,0.57,-0.69,0.03,-0.01,0.01
7:54:53 PM,-10.49,0.56,-0.79,0.01,-0.01,0.01
7:54:53 PM,-10.46,0.53,-0.68,0.00,0.01,0.01
7:54:54 PM,-10.45,0.57,-0.88,0.00,-0.02,0.01
7:54:54 PM,-10.39,0.55,-0.77,0.01,-0.03,0.01
7:54:54 PM,-10.37,0.59,-0.82,0.02,-0.04,0.01
7:54:54 PM,-10.55,0.53,-0.71,0.02,-0.01,0.01
7:54:54 PM,-10.40,0.52,-0.74,0.07,-0.08,0.01
7:54:54 PM,-10.52,0.55,-0.68,0.01,0.02,0.01
7:54:54 PM,-10.46,0.54,-0.64,0.03,-0.02,0.01
7:54:54 PM,-10.49,0.55,-0.86,0.00,-0.02,0.01
7:54:54 PM,-10.45,0.57,-0.78,0.00,-0.05,0.01
7:54:54 PM,-10.44,0.55,-0.58,0.00,-0.01,0.01
7:54:55 PM,-10.34,0.60,-0.87,0.03,0.04,0.01
7:54:55 PM,-10.49,0.57,-0.80,0.00,-0.07,0.01
7:54:55 PM,-10.40,0.59,-0.63,0.01,-0.02,0.01
7:54:55 PM,-10.52,0.59,-0.70,0.01,-0.04,0.01
7:54:55 PM,-10.33,0.53,-0.65,0.00,-0.01,0.01
7:54:55 PM,-10.51,0.51,-0.55,0.00,-0.02,0.01
7:54:55 PM,-10.46,0.54,-0.67,-0.01,-0.02,0.01
7:54:55 PM,-9.89,1.00,-1.70,-0.07,-0.05,0.01
7:54:55 PM,-11.38,0.42,-1.20,0.05,-0.01,0.01
7:54:56 PM,-10.38,0.50,-0.75,0.05,-0.01,0.01
7:54:56 PM,-10.43,0.40,-0.73,0.04,0.04,0.01
7:54:56 PM,-10.55,0.58,-1.15,0.04,-0.08,0.01
7:54:56 PM,-10.47,0.47,-0.92,-0.01,0.03,0.01
7:54:56 PM,-10.39,0.53,-0.93,0.04,0.02,0.01
7:54:56 PM,-10.44,0.52,-0.70,0.02,-0.03,0.01
7:54:56 PM,-10.53,0.51,-0.87,-0.01,0.01,0.01
7:54:56 PM,-10.59,0.46,-0.77,0.04,-0.03,0.01
7:54:56 PM,-10.41,0.54,-0.64,0.03,-0.04,0.01
7:54:56 PM,-10.45,0.48,-0.72,0.02,-0.02,0.01
7:54:57 PM,-10.44,0.53,-0.85,0.02,-0.01,0.01
7:54:57 PM,-10.41,0.58,-0.73,-0.00,-0.03,0.01
7:54:57 PM,-10.31,0.50,-0.61,-0.06,0.03,0.01
7:54:57 PM,-10.68,0.57,-0.96,-0.00,0.00,0.01
7:54:57 PM,-10.35,0.48,-0.56,0.02,0.06,0.01
7:54:57 PM,-10.40,0.63,-0.70,0.03,-0.01,0.01
7:54:57 PM,-10.39,0.59,-0.83,0.03,-0.03,0.01
7:54:57 PM,-10.34,0.58,-0.92,0.04,-0.03,0.01
7:54:57 PM,-10.41,0.62,-0.86,0.01,-0.05,0.01
7:54:58 PM,-10.52,0.62,-0.78,0.01,-0.01,0.01
7:54:58 PM,-10.38,0.65,-0.85,-0.00,-0.02,0.01
7:54:58 PM,-10.45,0.68,-0.83,0.01,-0.02,0.01
7:54:58 PM,-10.27,0.63,-0.74,-0.00,-0.01,0.01
7:54:58 PM,-10.51,0.58,-0.77,-0.02,-0.01,0.01
7:54:58 PM,-10.18,0.74,-0.88,0.07,-0.07,0.01
7:54:58 PM,-10.64,0.56,-0.78,0.02,-0.00,0.01
7:54:58 PM,-10.41,0.66,-1.05,-0.10,-0.01,0.01
7:54:58 PM,-10.34,0.63,-0.72,0.02,-0.00,0.01
7:54:58 PM,-10.33,0.63,-0.69,0.03,-0.01,0.01
7:54:59 PM,-10.41,0.63,-0.74,0.04,0.00,0.01
7:54:59 PM,-10.40,0.59,-0.81,0.02,0.01,0.01
7:54:59 PM,-10.57,0.61,-0.82,0.01,0.01,0.01
7:54:59 PM,-10.46,0.63,-0.70,0.01,-0.06,0.01
7:54:59 PM,-10.28,0.57,-0.67,-0.01,-0.00,0.01
7:54:59 PM,-10.44,0.55,-0.65,0.00,-0.05,0.01
7:54:59 PM,-10.44,0.57,-0.62,0.02,0.01,0.01
7:54:59 PM,-10.43,0.64,-0.65,0.03,-0.03,0.01
7:54:59 PM,-10.46,0.56,-0.72,-0.03,0.02,0.01
7:55:00 PM,-10.46,0.55,-0.54,0.01,-0.03,0.01
7:55:00 PM,-10.38,0.65,-0.75,0.03,0.04,0.01
7:55:00 PM,-10.50,0.62,-0.80,0.03,0.01,0.01
7:55:00 PM,-10.38,0.66,-0.66,0.01,0.01,0.01
7:55:00 PM,-10.49,0.62,-0.67,0.00,0.03,0.01
7:55:00 PM,-10.45,0.60,-0.68,0.03,-0.00,0.01
